Folder: ML_Dmg_Mehdi_Dataset/Accelerated corrosion test data/2025-10-14_06-00-04

Note: README.md
# ML_Dmg_Mehdi_Dataset

File: sample_1.csv
Frequency (Hz),Impedance (ohms),Phase (Radians),Temperature (C),Humidity (%)
10000.0,240.116,-12188.9,0,0
11301.625,213.948,-10795.6,0,0
12603.25,194.645,-9697.51,0,0
13904.875,182.258,-8774.28,0,0
15206.5,185.45,-8042.82,0,0
16508.125,155.136,-7419.24,0,0
17809.75,145.589,-6884.05,0,0
19111.375,135.305,-6415.78,0,0
20413.0,157.225,-5973.85,0,0
21714.625,136.617,-5657.32,0,0
23016.25,122.291,-5354.67,0,0
24317.875,112.423,-5063.02,0,0
25619.5,104.852,-4798.75,0,0
26921.1,114.07,-4550.47,0,0
28222.7,110.945,-4347.01,0,0
29524.4,106.542,-4180.97,0,0
30826,101.047,-3994.38,0,0
32127.6,97.6554,-3836.34,0,0
33429.2,88.6147,-3693.11,0,0
34730.9,82.0048,-3551.35,0,0
36032.5,77.4958,-3420.44,0,0
37334.1,75.3088,-3298.48,0,0
38635.7,72.8328,-3184.89,0,0
39937.4,71.0362,-3078.25,0,0
41239,72.2628,-2979.86,0,0
42540.6,70.5214,-2887.57,0,0
43842.225,67.6197,-2800.51,0,0
45143.85,68.066,-2719.14,0,0
46445.475,65.3352,-2642.8,0,0
47747.1,64.1437,-2569.08,0,0
49048.725,61.5806,-2499.25,0,0
50350.35,59.7089,-2432.77,0,0
51651.975,58.7165,-2369.35,0,0
52953.6,57.7834,-2308.52,0,0
54255.225,56.7116,-2251.67,0,0
55556.85,55.8972,-2196.19,0,0
56858.475,54.9533,-2143.17,0,0
58160.1,54.7226,-2092.69,0,0
59461.7,54.5091,-2044.78,0,0
60763.3,54.4589,-1998.91,0,0
62065,53.2132,-1955.09,0,0
63366.6,52.4564,-1911.65,0,0
64668.2,53.0101,-1869.49,0,0
65969.8,55.1562,-1831.76,0,0
67271.5,53.7992,-1795.14,0,0
68573.1,53.3417,-1759.63,0,0
69874.7,52.3486,-1725.86,0,0
71176.3,50.4333,-1691.32,0,0
72478,48.5168,-1657.65,0,0
73779.6,48.2263,-1624.24,0,0
75081.2,48.5327,-1591.99,0,0
76382.825,49.3953,-1560.97,0,0
77684.45,50.4034,-1531.67,0,0
78986.075,51.9926,-1504.14,0,0
80287.7,51.2124,-1477.79,0,0
81589.325,50.6013,-1449.83,0,0
82890.95,51.2859,-1423.09,0,0
84192.575,52.8122,-1397.04,0,0
85494.2,55.0676,-1372.33,0,0
86795.825,56.0276,-1349.29,0,0
88097.45,56.3359,-1325.97,0,0
89399.075,58.1841,-1301.44,0,0
90700.7,61.4881,-1278.22,0,0
92002.3,67.7737,-1257.1,0,0
93303.9,74.9193,-1240.42,0,0
94605.6,73.6964,-1233.04,0,0
95907.2,66.7759,-1214.5,0,0
97208.8,64.7586,-1193.93,0,0
98510.4,64.3401,-1173.37,0,0
99812.1,63.2714,-1153.68,0,0
101114,63.3693,-1133.7,0,0
102415,63.393,-1112.2,0,0
103717,68.0781,-1090.94,0,0
105019,75.0923,-1073.5,0,0
106320.175,81.452,-1057.3,0,0
107621.8,87.8316,-1045,0,0
108923.425,92.259,-1034.19,0,0
110225.05,93.9931,-1026.21,0,0
111526.675,93.8837,-1013.54,0,0
112828.3,96.1332,-1003.94,0,0
114129.925,94.9929,-996.076,0,0
115431.55,91.4487,-986.549,0,0
116733.175,86.5771,-974.158,0,0
118034.8,82.4599,-959.565,0,0
119336.425,80.9558,-943.916,0,0
120638.05,81.514,-929.546,0,0
121939.675,80.479,-917.1,0,0
123241,79.0468,-902.715,0,0
124543,78.8251,-887.619,0,0
125845,79.6788,-872.872,0,0
127146,81.1175,-858.638,0,0
128448,83.1375,-844.185,0,0
129749,85.5744,-830.134,0,0
131051,90.6578,-816.987,0,0
132353,94.7802,-806.7,0,0
133654,97.5853,-796.24,0,0
134956,100.325,-785.861,0,0
136258,102.957,-775.025,0,0
137559,107.787,-765.175,0,0
138860.775,110.103,-758.924,0,0
140162.4,109.708,-750.697,0,0
141464.025,109.48,-740.38,0,0
142765.65,110.073,-729.386,0,0
144067.275,111.497,-718.027,0,0
145368.9,113.87,-706.887,0,0
146670.525,116.735,-696.581,0,0
147972.15,119.216,-687.717,0,0
149273.775,121.34,-676.85,0,0
150575.4,123.128,-669.102,0,0
151877.025,121.748,-657.567,0,0
153178.65,121.713,-642.624,0,0
154480,125.678,-626.029,0,0
155782,133.263,-609.185,0,0
157084,145.256,-594.71,0,0
158385,157.92,-585.066,0,0
159687,168.089,-574.459,0,0
160988,186.28,-564.221,0,0
162290,205.075,-564.371,0,0
163592,216.351,-566.827,0,0
164893,227.903,-568.624,0,0
166195,240.716,-575.049,0,0
167497,246.857,-586.452,0,0
168798,245.044,-598.543,0,0
170100,235.313,-604.591,0,0
171401.375,226.988,-601.698,0,0
172703.0,223.259,-596.983,0,0
174004.625,219.576,-592.124,0,0
175306.25,218.355,-586.419,0,0
176607.875,218.473,-583.405,0,0
177909.5,217.06,-580.164,0,0
179211.125,213.102,-578.541,0,0
180512.75,206.187,-574.501,0,0
181814.375,199.295,-566.118,0,0
183116.0,193.149,-555.727,0,0
184417.625,187.557,-542.198,0,0
185719.25,186.405,-525.407,0,0
187021,187.91,-510.402,0,0
188322,191.061,-495.619,0,0
189624,195,-480.667,0,0
190926,199.808,-465.745,0,0
192227,205.39,-449.018,0,0
193529,214.454,-431.999,0,0
194831,224.786,-415.242,0,0
196132,238.175,-397.897,0,0
197434,254.321,-380.409,0,0
198735,274.43,-364.326,0,0
200037,295.724,-349.028,0,0
201339,322.722,-332.923,0,0
202640.35,358.244,-318.431,0,0
203941.975,401.562,-312.782,0,0
205243.6,453.14,-321.887,0,0
206545.225,496.343,-350.346,0,0
207846.85,525.38,-388.966,0,0
209148.475,539.378,-428.716,0,0
210450.1,536.707,-465.327,0,0
211751.725,526.663,-483.406,0,0
213053.35,523.743,-486.805,0,0
214354.975,536.126,-494.062,0,0
215656.6,549.34,-507.592,0,0
216958.225,559.383,-524.245,0,0
218259.85,571.035,-540.264,0,0
219561,586.259,-557.233,0,0
220863,605.786,-583.351,0,0
222165,623.589,-621.897,0,0
223466,627.794,-671.668,0,0
224768,617.709,-720.943,0,0
226070,595.962,-766.899,0,0
227371,565.651,-808.737,0,0
228673,521.825,-841.882,0,0
229974,474.105,-858.708,0,0
231276,430.469,-861.803,0,0
232578,394.856,-857.198,0,0
233879,367.08,-851.154,0,0
235180.95,343.03,-846.877,0,0
236482.575,317.922,-841.982,0,0
237784.2,294.748,-834.632,0,0
239085.825,272.68,-825.545,0,0
240387.45,253.462,-813.87,0,0
241689.075,236.856,-802.339,0,0
242990.7,222.577,-790.138,0,0
244292.325,210.332,-778.683,0,0
245593.95,198.455,-767.926,0,0
246895.575,186.628,-756.383,0,0
248197.2,176.738,-743.567,0,0
249498.825,168.427,-731.029,0,0
250800,161.414,-718.802,0,0
252102,155.262,-706.711,0,0
253404,149.696,-694.328,0,0
254705,145.782,-681.349,0,0
256007,143.783,-669.262,0,0
257309,142.351,-657.756,0,0
258610,141.734,-646.125,0,0
259912,143.635,-634.271,0,0
261213,147.862,-624.508,0,0
262515,153.025,-617.223,0,0
263817,158.477,-612.03,0,0
265118,164.372,-608.862,0,0
266420,170.936,-609.713,0,0
267721.55,173.42,-615.712,0,0
269023.175,168.629,-622.317,0,0
270324.8,158.412,-623.679,0,0
271626.425,148.282,-618.466,0,0
272928.05,142.156,-609.554,0,0
274229.675,140.026,-600.587,0,0
275531.3,139.77,-593.151,0,0
276832.925,140.697,-586.515,0,0
278134.55,142.971,-581.604,0,0
279436.175,145.021,-579.162,0,0
280737.8,145.53,-578.011,0,0
282039.425,144.247,-577.401,0,0
283341,140.996,-575.62,0,0
284643,137.976,-571.844,0,0
285944,135.57,-568.318,0,0
287246,131.393,-563.701,0,0
288548,128.991,-555.289,0,0
289849,131.453,-547.49,0,0
291151,134.34,-543.815,0,0
292452,135.539,-541.375,0,0
293754,134.411,-538.197,0,0
295056,133.669,-531.927,0,0
296357,136.516,-524.806,0,0
297659,141.146,-520.26,0,0
298960.525,145.963,-516.467,0,0
300262.15,151.568,-513.957,0,0
301563.775,157.828,-512.593,0,0
302865.4,164.682,-514.147,0,0
304167.025,169.587,-517.52,0,0
305468.65,173.712,-521.628,0,0
306770.275,176.936,-527.201,0,0
308071.9,177.743,-534.517,0,0
309373.525,176.233,-540.607,0,0
310675.15,174.379,-546.973,0,0
311976.775,170.26,-553.95,0,0
313278.4,163.139,-559.755,0,0
314580,154.89,-562.303,0,0
315882,147.578,-563.725,0,0
317183,139.473,-564.276,0,0
318485,131.408,-562.955,0,0
319787,124.015,-560.652,0,0
321088,116.992,-557.195,0,0
322390,110.75,-552.581,0,0
323691,105.938,-546.842,0,0
324993,102.913,-541.386,0,0
326295,101.189,-536.631,0,0
327596,99.8595,-532.998,0,0
328898,98.672,-530.341,0,0
330200,96.9984,-528.518,0,0
331501.125,94.5033,-526.879,0,0
332802.75,91.3476,-525.163,0,0
334104.375,87.8273,-522.873,0,0
335406.0,84.0881,-520.04,0,0
336707.625,80.5078,-516.678,0,0
338009.25,77.144,-512.979,0,0
339310.875,74.1992,-508.807,0,0
340612.5,71.6614,-504.609,0,0
341914.125,69.4606,-500.605,0,0
343215.75,67.2366,-496.55,0,0
344517.375,65.1309,-492.491,0,0
345819.0,63.0854,-488.222,0,0
347121,61.2231,-483.749,0,0
348422,59.7774,-478.97,0,0
349724,58.8205,-474.345,0,0
351025,58.0615,-469.813,0,0
352327,57.6408,-465.493,0,0
353629,57.3046,-461.442,0,0
354930,57.0456,-457.369,0,0
356232,56.9353,-453.361,0,0
357534,56.9737,-449.539,0,0
358835,56.9806,-445.819,0,0
360137,57.1967,-442.075,0,0
361438,57.5756,-438.467,0,0
362740.1,57.848,-435.019,0,0
364041.725,58.2277,-431.473,0,0
365343.35,58.8005,-427.999,0,0
366644.975,59.3419,-424.827,0,0
367946.6,59.4501,-421.295,0,0
369248.225,60.1339,-416.891,0,0
370549.85,62.0571,-412.396,0,0
371851.475,65.061,-408.609,0,0
373153.1,68.6705,-406.086,0,0
374454.725,72.1025,-404.944,0,0
375756.35,74.6817,-404.659,0,0
377057.975,76.5812,-404.333,0,0
378359.6,78.3787,-404.333,0,0
379661,79.6294,-404.526,0,0
380963,81.0263,-404.495,0,0
382264,82.5819,-405.985,0,0
383566,82.4278,-408.209,0,0
384868,80.7503,-409.997,0,0
386169,78.0193,-410.847,0,0
387471,74.7797,-410.273,0,0
388773,72.1506,-408.505,0,0
390074,70.4052,-406.446,0,0
391376,69.1133,-404.58,0,0
392677,67.7416,-403.254,0,0
393979,65.6021,-401.867,0,0
395280.7,63.163,-399.567,0,0
396582.325,61.0164,-396.546,0,0
397883.95,59.5241,-393.101,0,0
399185.575,58.425,-389.587,0,0
400006.6,57.9381,-387.301,0,0

File: sample_2.csv
Frequency (Hz),Impedance (ohms),Phase (Radians),Temperature (C),Humidity (%)
10000.0,230.794,-11408.9,0,0
11301.625,205.217,-10104.7,0,0
12603.25,185.02,-9071.83,0,0
13904.875,187.383,-8229.24,0,0
15206.5,164.117,-7538.75,0,0
16508.125,144.045,-6945.08,0,0
17809.75,133.664,-6438.43,0,0
19111.375,129.479,-5999.85,0,0
20413.0,118.924,-5617.17,0,0
21714.625,127.477,-5288.99,0,0
23016.25,112.813,-4993.08,0,0
24317.875,103.345,-4727.79,0,0
25619.5,98.2212,-4484.5,0,0
26921.1,94.9404,-4266.34,0,0
28222.7,90.5158,-4068.1,0,0
29524.4,93.8467,-3884.35,0,0
30826,88.2254,-3730.33,0,0
32127.6,82.4232,-3576.37,0,0
33429.2,80.1564,-3438.5,0,0
34730.9,76.0606,-3307.71,0,0
36032.5,73.3781,-3186.76,0,0
37334.1,71.1987,-3073.42,0,0
38635.7,69.1928,-2968.48,0,0
39937.4,67.17,-2869.76,0,0
41239,65.8553,-2777.06,0,0
42540.6,64.5323,-2690.55,0,0
43842.225,63.3597,-2608.65,0,0
45143.85,62.0614,-2531.23,0,0
46445.475,61.4843,-2458.94,0,0
47747.1,60.7346,-2389.69,0,0
49048.725,60.7352,-2325.87,0,0
50350.35,58.0786,-2263.88,0,0
51651.975,56.878,-2204.9,0,0
52953.6,55.3433,-2147.79,0,0
54255.225,54.6443,-2093.14,0,0
55556.85,54.0679,-2041.22,0,0
56858.475,54.0287,-1991.54,0,0
58160.1,54.3406,-1944.33,0,0
59461.7,54.8154,-1898.41,0,0
60763.3,56.3091,-1856.08,0,0
62065,59.108,-1817.81,0,0
63366.6,55.7339,-1781.11,0,0
64668.2,53.2437,-1742.96,0,0
65969.8,50.9026,-1703.88,0,0
67271.5,51.5222,-1666.66,0,0
68573.1,53.5749,-1632.78,0,0
69874.7,56.0574,-1602.56,0,0
71176.3,52.7503,-1574.33,0,0
72478,48.009,-1543.91,0,0
73779.6,45.3255,-1511.17,0,0
75081.2,45.3837,-1478.85,0,0
76382.825,47.0774,-1448.53,0,0
77684.45,49.8623,-1420.34,0,0
78986.075,53.1073,-1396.18,0,0
80287.7,51.8699,-1374.68,0,0
81589.325,49.323,-1349.69,0,0
82890.95,48.1716,-1323.99,0,0
84192.575,48.9269,-1299.28,0,0
85494.2,49.5569,-1275.69,0,0
86795.825,50.5999,-1253.8,0,0
88097.45,51.1528,-1232.53,0,0
89399.075,51.4656,-1211.11,0,0
90700.7,51.33,-1190.95,0,0
92002.3,52.9753,-1169.76,0,0
93303.9,55.4113,-1151.09,0,0
94605.6,55.4552,-1134.34,0,0
95907.2,54.4785,-1114.83,0,0
97208.8,57.8258,-1097.84,0,0
98510.4,57.5882,-1084.17,0,0
99812.1,53.3688,-1069.38,0,0
101114,50.5916,-1052.15,0,0
102415,47.036,-1031.96,0,0
103717,46.1736,-1010.96,0,0
105019,49.3879,-990.6,0,0
106320.175,54.2014,-973.607,0,0
107621.8,57.6882,-961.722,0,0
108923.425,56.2107,-949.622,0,0
110225.05,52.79,-934.423,0,0
111526.675,51.758,-916.634,0,0
112828.3,52.1415,-899.152,0,0
114129.925,53.696,-882.054,0,0
115431.55,56.5145,-865.54,0,0
116733.175,59.9849,-850.222,0,0
118034.8,63.9438,-836.196,0,0
119336.425,67.5827,-824.054,0,0
120638.05,70.0586,-813.6,0,0
121939.675,69.4767,-802.584,0,0
123241,68.6833,-789.686,0,0
124543,68.1488,-776.004,0,0
125845,68.3289,-761.21,0,0
127146,69.6984,-746.008,0,0
128448,72.7072,-731.671,0,0
129749,75.4884,-718.738,0,0
131051,78.2223,-705.928,0,0
132353,79.5636,-693.859,0,0
133654,80.8173,-680.209,0,0
134956,82.1663,-666.306,0,0
136258,84.3505,-651.37,0,0
137559,87.2105,-636.25,0,0
138860.775,90.3915,-621.408,0,0
140162.4,93.3376,-605.168,0,0
141464.025,99.0438,-586.254,0,0
142765.65,108.634,-569.006,0,0
144067.275,118.651,-553.769,0,0
145368.9,129.924,-538.467,0,0
146670.525,142.797,-524.224,0,0
147972.15,158.128,-510.193,0,0
149273.775,178.655,-497.137,0,0
150575.4,205.797,-493.283,0,0
151877.025,228.017,-503.973,0,0
153178.65,236.593,-518.704,0,0
154480,235.323,-529.707,0,0
155782,231.271,-532.663,0,0
157084,225.831,-532.535,0,0
158385,221.735,-525.719,0,0
159687,222.111,-519.226,0,0
160988,222.992,-512.455,0,0
162290,231.497,-508.934,0,0
163592,227.01,-515.828,0,0
164893,213.897,-513.142,0,0
166195,200.795,-499.461,0,0
167497,193.475,-480.464,0,0
168798,191.26,-458.346,0,0
170100,192.78,-436.431,0,0
171401.375,197.274,-413.869,0,0
172703.0,205.852,-390.031,0,0
174004.625,218.183,-365.851,0,0
175306.25,237.685,-341.561,0,0
176607.875,263.621,-324.999,0,0
177909.5,291.193,-314.584,0,0
179211.125,312.559,-315.458,0,0
180512.75,321.332,-313.506,0,0
181814.375,328.042,-297.788,0,0
183116.0,344.347,-277.71,0,0
184417.625,369.021,-254.312,0,0
185719.25,403.732,-236.349,0,0
187021,441.138,-224.511,0,0
188322,483.863,-216.942,0,0
189624,524.172,-215.514,0,0
190926,569.197,-210.718,0,0
192227,629.42,-210.13,0,0
193529,702.718,-228.491,0,0
194831,769.663,-276.774,0,0
196132,819.515,-337.25,0,0
197434,859.168,-402.66,0,0
198735,889.787,-483.419,0,0
200037,895.582,-566.712,0,0
201339,886.479,-655.106,0,0
202640.35,849.828,-733.301,0,0
203941.975,798.467,-792.834,0,0
205243.6,745.653,-839.235,0,0
206545.225,682.928,-865.311,0,0
207846.85,630.975,-873.068,0,0
209148.475,594.804,-878.093,0,0
210450.1,555.854,-890.906,0,0
211751.725,509.477,-893.974,0,0
213053.35,470.158,-882.91,0,0
214354.975,439.386,-868.798,0,0
215656.6,414.717,-854.382,0,0
216958.225,395.148,-838.323,0,0
218259.85,380.976,-823.082,0,0
219561,371.289,-809.009,0,0
220863,364.272,-798.043,0,0
222165,360.973,-787.968,0,0
223466,360.011,-784.182,0,0
224768,356.239,-783.06,0,0
226070,351.691,-780.896,0,0
227371,350.195,-781.52,0,0
228673,348.239,-787.215,0,0
229974,340.145,-797.193,0,0
231276,326.088,-804.758,0,0
232578,310.107,-809.207,0,0
233879,292.569,-810.534,0,0
235180.95,275.041,-808.992,0,0
236482.575,258.049,-805.536,0,0
237784.2,241.106,-800.023,0,0
239085.825,225.546,-791.986,0,0
240387.45,211.862,-782.553,0,0
241689.075,200.212,-772.627,0,0
242990.7,190.531,-762.164,0,0
244292.325,182.226,-753.517,0,0
245593.95,173.825,-746.219,0,0
246895.575,162.658,-739.832,0,0
248197.2,149.603,-729.209,0,0
249498.825,138.655,-715.588,0,0
250800,129.741,-700.083,0,0
252102,124.228,-682.997,0,0
253404,121.957,-666.942,0,0
254705,121.04,-651.539,0,0
256007,122.128,-635.858,0,0
257309,126.5,-621.553,0,0
258610,132.243,-609.528,0,0
259912,139.263,-598.81,0,0
261213,147.911,-590.711,0,0
262515,156.959,-585.435,0,0
263817,165.322,-583.058,0,0
265118,172.495,-582.893,0,0
266420,177.093,-584.337,0,0
267721.55,179.841,-585.503,0,0
269023.175,180.717,-586.483,0,0
270324.8,180.352,-584.719,0,0
271626.425,182.691,-580.677,0,0
272928.05,188.331,-576.987,0,0
274229.675,198.286,-576.176,0,0
275531.3,211.047,-583.924,0,0
276832.925,215.784,-601.182,0,0
278134.55,209.342,-616.917,0,0
279436.175,198.214,-627.267,0,0
280737.8,185.179,-632.908,0,0
282039.425,172.519,-635.464,0,0
283341,157.753,-634.556,0,0
284643,146.76,-629.459,0,0
285944,134.123,-625.6,0,0
287246,120.507,-614.386,0,0
288548,113.012,-597.284,0,0
289849,115.167,-578.262,0,0
291151,126.868,-565.377,0,0
292452,142.167,-564.595,0,0
293754,148.346,-574.03,0,0
295056,144.77,-578.477,0,0
296357,146.659,-578.342,0,0
297659,147.03,-588.029,0,0
298960.525,137.949,-594.25,0,0
300262.15,128.099,-595.16,0,0
301563.775,119.878,-591.824,0,0
302865.4,115.858,-588.72,0,0
304167.025,111.423,-588.602,0,0
305468.65,104.109,-588.463,0,0
306770.275,95.5483,-585.742,0,0
308071.9,87.7267,-580.61,0,0
309373.525,81.6068,-574.397,0,0
310675.15,76.5973,-568.278,0,0
311976.775,72.1202,-561.815,0,0
313278.4,68.6158,-555.096,0,0
314580,65.886,-548.73,0,0
315882,63.3913,-542.442,0,0
317183,61.5832,-536.104,0,0
318485,60.3574,-530.068,0,0
319787,59.4496,-524.485,0,0
321088,58.4236,-519.213,0,0
322390,57.4302,-513.748,0,0
323691,56.5568,-508.013,0,0
324993,56.4415,-501.435,0,0
326295,58.573,-495.05,0,0
327596,61.8553,-491.188,0,0
328898,63.9513,-488.985,0,0
330200,65.4421,-487.173,0,0
331501.125,66.4058,-486.397,0,0
332802.75,65.6917,-486.121,0,0
334104.375,63.2288,-484.934,0,0
335406.0,60.7731,-482.161,0,0
336707.625,58.8472,-478.799,0,0
338009.25,57.2054,-475.024,0,0
339310.875,55.8343,-470.923,0,0
340612.5,54.8911,-466.633,0,0
341914.125,54.5003,-462.295,0,0
343215.75,54.3606,-457.988,0,0
344517.375,54.7215,-453.625,0,0
345819.0,55.6029,-449.483,0,0
347121,56.7813,-445.736,0,0
348422,58.1337,-442.346,0,0
349724,59.7342,-439.359,0,0
351025,61.4938,-436.879,0,0
352327,62.8777,-434.97,0,0
353629,63.8891,-433.051,0,0
354930,65.0313,-431.04,0,0
356232,66.2363,-429.195,0,0
357534,67.726,-427.528,0,0
358835,69.4395,-426.543,0,0
360137,70.7777,-426.372,0,0
361438,71.3198,-426.637,0,0
362740.1,71.006,-426.826,0,0
364041.725,70.2322,-426.669,0,0
365343.35,69.1704,-426.193,0,0
366644.975,67.7582,-425.143,0,0
367946.6,66.9088,-423.407,0,0
369248.225,66.9321,-422.075,0,0
370549.85,66.4042,-421.769,0,0
371851.475,65.01,-421.057,0,0
373153.1,63.7293,-419.752,0,0
374454.725,62.6311,-418.667,0,0
375756.35,61.1081,-417.732,0,0
377057.975,59.3787,-416.195,0,0
378359.6,57.9569,-414.923,0,0
379661,55.2193,-413.61,0,0
380963,52.8232,-409.983,0,0
382264,52.8433,-407.184,0,0
383566,51.8218,-405.888,0,0
384868,49.7797,-403.948,0,0
386169,47.7289,-401.197,0,0
387471,46.2388,-397.842,0,0
388773,45.1832,-394.408,0,0
390074,44.8409,-390.966,0,0
391376,44.9991,-388.182,0,0
392677,44.6008,-386.367,0,0
393979,43.0285,-384.028,0,0
395280.7,41.4563,-380.605,0,0
396582.325,40.7007,-376.585,0,0
397883.95,40.6289,-372.503,0,0
399185.575,41.1831,-368.79,0,0
400006.6,41.6231,-366.645,0,0