Folder: ML_Dmg_Mehdi_Dataset/Accelerated corrosion test data/2025-10-14_08-28-47 (part 2)

File: sample_3.csv
Frequency (Hz),Impedance (ohms),Phase (Radians),Temperature (C),Humidity (%)
10000.0,250.265,-11798,0,0
11301.625,222.477,-10450.4,0,0
12603.25,201.719,-9378.78,0,0
13904.875,184.219,-8506.19,0,0
15206.5,172.768,-7774.6,0,0
16508.125,160.537,-7179.36,0,0
17809.75,156.147,-6650.59,0,0
19111.375,145.776,-6200.59,0,0
20413.0,159.207,-5801.15,0,0
21714.625,138.395,-5477.78,0,0
23016.25,127.684,-5171.89,0,0
24317.875,118.744,-4892.37,0,0
25619.5,112.918,-4645.31,0,0
26921.1,107.841,-4413.71,0,0
28222.7,102.984,-4207.03,0,0
29524.4,108.238,-4030.18,0,0
30826,100.529,-3858.28,0,0
32127.6,100.922,-3693.33,0,0
33429.2,98.7424,-3569.16,0,0
34730.9,87.4508,-3431.56,0,0
36032.5,83.0007,-3303.55,0,0
37334.1,79.9273,-3185.13,0,0
38635.7,77.544,-3075.19,0,0
39937.4,75.3045,-2972.74,0,0
41239,74.0399,-2875.7,0,0
42540.6,72.816,-2785.73,0,0
43842.225,71.6797,-2699.95,0,0
45143.85,70.5444,-2620.29,0,0
46445.475,69.4878,-2544.72,0,0
47747.1,69.8762,-2472.05,0,0
49048.725,68.2165,-2406.69,0,0
50350.35,66.1837,-2341.44,0,0
51651.975,65.7534,-2278.69,0,0
52953.6,66.0681,-2218.79,0,0
54255.225,69.0155,-2163.92,0,0
55556.85,66.289,-2116.49,0,0
56858.475,61.3287,-2063.71,0,0
58160.1,60.804,-2011.86,0,0
59461.7,61.2359,-1962.83,0,0
60763.3,62.6379,-1916.03,0,0
62065,64.6153,-1871.31,0,0
63366.6,68.3787,-1827.9,0,0
64668.2,77.2875,-1786.41,0,0
65969.8,91.6454,-1760.89,0,0
67271.5,75.5255,-1735.11,0,0
68573.1,75.794,-1697.44,0,0
69874.7,75.5328,-1668.31,0,0
71176.3,70.5291,-1637.6,0,0
72478,69.2343,-1605.06,0,0
73779.6,67.6823,-1576.64,0,0
75081.2,64.0688,-1548.68,0,0
76382.825,60.4925,-1519.31,0,0
77684.45,57.9447,-1490.55,0,0
78986.075,55.7327,-1462.05,0,0
80287.7,54.1847,-1433.97,0,0
81589.325,53.1188,-1406.84,0,0
82890.95,52.6011,-1380.27,0,0
84192.575,52.2777,-1354.51,0,0
85494.2,52.1774,-1329.56,0,0
86795.825,52.3588,-1305.27,0,0
88097.45,52.8926,-1281.34,0,0
89399.075,54.239,-1257.65,0,0
90700.7,56.3749,-1236.16,0,0
92002.3,58.6937,-1215.35,0,0
93303.9,61.607,-1196.57,0,0
94605.6,62.474,-1181.93,0,0
95907.2,57.3148,-1164.06,0,0
97208.8,56.0312,-1142.76,0,0
98510.4,55.7816,-1123.14,0,0
99812.1,55.2981,-1104.21,0,0
101114,54.9133,-1084.48,0,0
102415,56.2851,-1064.03,0,0
103717,60.1062,-1046.39,0,0
105019,63.3634,-1032.13,0,0
106320.175,62.8188,-1018.37,0,0
107621.8,60.5733,-1002.67,0,0
108923.425,58.7739,-985.278,0,0
110225.05,58.8276,-966.763,0,0
111526.675,61.2055,-948.795,0,0
112828.3,63.2719,-932.924,0,0
114129.925,64.7025,-916.962,0,0
115431.55,66.7493,-900.182,0,0
116733.175,70.4569,-883.55,0,0
118034.8,76.2771,-867.619,0,0
119336.425,82.9599,-855.567,0,0
120638.05,89.0041,-849.439,0,0
121939.675,86.0278,-841.053,0,0
123241,86.5203,-827.664,0,0
124543,88.1072,-816.227,0,0
125845,89.554,-805.858,0,0
127146,89.0996,-796.136,0,0
128448,87.4944,-785.424,0,0
129749,86.0112,-772.499,0,0
131051,87.0713,-759.729,0,0
132353,86.3623,-748.665,0,0
133654,85.7039,-736.783,0,0
134956,84.1282,-724.19,0,0
136258,82.6751,-710.85,0,0
137559,82.3871,-695.681,0,0
138860.775,83.6612,-682.089,0,0
140162.4,82.9435,-668.643,0,0
141464.025,82.561,-654.6,0,0
142765.65,81.7514,-638.686,0,0
144067.275,82.0606,-621.522,0,0
145368.9,83.7215,-603.486,0,0
146670.525,86.335,-584.791,0,0
147972.15,90.685,-564.893,0,0
149273.775,97.1387,-544.677,0,0
150575.4,107.537,-524.563,0,0
151877.025,120.1,-507.7,0,0
153178.65,132.69,-494.101,0,0
154480,142.614,-482.209,0,0
155782,150.917,-465.816,0,0
157084,162.815,-448.435,0,0
158385,179.214,-437.701,0,0
159687,183.575,-423.108,0,0
160988,198.898,-395.867,0,0
162290,224.123,-370.082,0,0
163592,259.671,-348.62,0,0
164893,307.57,-337.134,0,0
166195,359.401,-349.61,0,0
167497,398.584,-381.015,0,0
168798,420.195,-417.318,0,0
170100,419.939,-458.52,0,0
171401.375,405.609,-474.501,0,0
172703.0,401.568,-477.34,0,0
174004.625,409.828,-487.193,0,0
175306.25,411.772,-504.033,0,0
176607.875,409.23,-522.641,0,0
177909.5,387.616,-540.716,0,0
179211.125,364.055,-532.754,0,0
180512.75,359.31,-519.645,0,0
181814.375,364.43,-516.122,0,0
183116.0,357.292,-522.277,0,0
184417.625,342.881,-520.127,0,0
185719.25,328.229,-507.496,0,0
187021,323.122,-484.592,0,0
188322,329.655,-466.295,0,0
189624,334.307,-451.838,0,0
190926,343.948,-437.232,0,0
192227,353.093,-423.991,0,0
193529,363.709,-405.764,0,0
194831,386.834,-388.079,0,0
196132,419.181,-382.281,0,0
197434,442.376,-393.749,0,0
198735,456.152,-400.352,0,0
200037,466.218,-405.949,0,0
201339,471.479,-400.108,0,0
202640.35,491.638,-390.714,0,0
203941.975,521.552,-390.543,0,0
205243.6,550.01,-404.379,0,0
206545.225,561.508,-420.013,0,0
207846.85,581.267,-419.657,0,0
209148.475,613.185,-428.608,0,0
210450.1,645.83,-450.757,0,0
211751.725,672.513,-483.018,0,0
213053.35,693.265,-517.869,0,0
214354.975,707.495,-560.59,0,0
215656.6,713.724,-606.16,0,0
216958.225,710.655,-652.049,0,0
218259.85,697.498,-695.686,0,0
219561,677.668,-732.111,0,0
220863,658.83,-768.788,0,0
222165,629.358,-806.375,0,0
223466,584.296,-832.463,0,0
224768,542.809,-834.395,0,0
226070,521.652,-832.183,0,0
227371,504.156,-841.139,0,0
228673,478.706,-852.811,0,0
229974,451.637,-858.582,0,0
231276,423.866,-861.121,0,0
232578,397.659,-859.802,0,0
233879,373.398,-856.649,0,0
235180.95,350.737,-852.123,0,0
236482.575,326.628,-847.476,0,0
237784.2,302.465,-839.196,0,0
239085.825,278.708,-825.044,0,0
240387.45,261.416,-807.905,0,0
241689.075,247.091,-790.457,0,0
242990.7,238.239,-772.078,0,0
244292.325,233.757,-757.488,0,0
245593.95,228.149,-745.966,0,0
246895.575,222.73,-733.726,0,0
248197.2,218.873,-721.824,0,0
249498.825,218.494,-711.062,0,0
250800,216.725,-705.62,0,0
252102,210.266,-699.644,0,0
253404,202.247,-688.807,0,0
254705,197.51,-674.173,0,0
256007,198.047,-657.468,0,0
257309,205.565,-644.03,0,0
258610,212.86,-635.292,0,0
259912,224.529,-626.676,0,0
261213,240.381,-627.312,0,0
262515,250.773,-639.884,0,0
263817,249.057,-654.442,0,0
265118,238.87,-665.088,0,0
266420,224.406,-668.431,0,0
267721.55,210.277,-663.897,0,0
269023.175,201.253,-655.023,0,0
270324.8,195.571,-645.823,0,0
271626.425,194.024,-636.006,0,0
272928.05,193.775,-629.539,0,0
274229.675,192.968,-621.586,0,0
275531.3,196.64,-613.514,0,0
276832.925,203.958,-609.068,0,0
278134.55,211.518,-610.915,0,0
279436.175,215.216,-617.356,0,0
280737.8,213.278,-625.329,0,0
282039.425,206.629,-630.746,0,0
283341,197.948,-632.754,0,0
284643,188.785,-631.425,0,0
285944,180.649,-627.132,0,0
287246,175.048,-620.437,0,0
288548,173.334,-614.025,0,0
289849,172.642,-610.042,0,0
291151,171.42,-607.839,0,0
292452,168.213,-605.155,0,0
293754,166.38,-599.894,0,0
295056,168.034,-595.865,0,0
296357,170.535,-595.513,0,0
297659,170.829,-598.141,0,0
298960.525,167.757,-601.082,0,0
300262.15,162.78,-602.884,0,0
301563.775,156.471,-603.226,0,0
302865.4,149.657,-601.492,0,0
304167.025,143.481,-598.329,0,0
305468.65,138.045,-593.864,0,0
306770.275,134.173,-588.707,0,0
308071.9,131.818,-584.043,0,0
309373.525,129.842,-580.794,0,0
310675.15,127.159,-578.231,0,0
311976.775,123.233,-575.577,0,0
313278.4,118.667,-571.346,0,0
314580,115.002,-565.419,0,0
315882,113.658,-558.557,0,0
317183,114.385,-553.453,0,0
318485,114.986,-550.176,0,0
319787,114.892,-547.242,0,0
321088,115.15,-544.369,0,0
322390,116.269,-542.24,0,0
323691,116.881,-542.331,0,0
324993,115.677,-543.409,0,0
326295,112.371,-543.991,0,0
327596,108.084,-543.306,0,0
328898,103.611,-541.517,0,0
330200,99.4687,-538.765,0,0
331501.125,95.2187,-535.901,0,0
332802.75,90.8829,-532.316,0,0
334104.375,86.5605,-527.91,0,0
335406.0,82.7781,-522.414,0,0
336707.625,79.9788,-516.463,0,0
338009.25,77.9708,-510.45,0,0
339310.875,76.6604,-503.863,0,0
340612.5,76.7126,-497.069,0,0
341914.125,78.6283,-491.161,0,0
343215.75,81.3107,-487.234,0,0
344517.375,83.1706,-485.325,0,0
345819.0,83.4234,-483.673,0,0
347121,83.1507,-481.443,0,0
348422,82.4452,-478.953,0,0
349724,81.8816,-475.4,0,0
351025,82.7687,-471.68,0,0
352327,84.5257,-469.828,0,0
353629,84.7123,-469.367,0,0
354930,83.3345,-468.429,0,0
356232,81.6462,-466.473,0,0
357534,79.9414,-463.757,0,0
358835,78.8218,-460.242,0,0
360137,78.7135,-456.875,0,0
361438,78.586,-454.17,0,0
362740.1,78.2349,-451.2,0,0
364041.725,78.866,-447.794,0,0
365343.35,80.3747,-445.85,0,0
366644.975,80.8501,-445.509,0,0
367946.6,79.2264,-444.838,0,0
369248.225,76.8976,-442.432,0,0
370549.85,76.3348,-438.038,0,0
371851.475,77.9849,-435.401,0,0
373153.1,78.3243,-435.07,0,0
374454.725,76.545,-433.868,0,0
375756.35,74.5753,-431.164,0,0
377057.975,73.7971,-427.391,0,0
378359.6,74.2674,-424.009,0,0
379661,75.1802,-421.335,0,0
380963,76.03,-419.822,0,0
382264,75.9588,-418.329,0,0
383566,75.8793,-416.923,0,0
384868,75.0035,-415.675,0,0
386169,73.7621,-413.754,0,0
387471,72.4895,-411.196,0,0
388773,71.2716,-407.987,0,0
390074,70.8367,-403.981,0,0
391376,71.5072,-399.829,0,0
392677,73.4904,-396.277,0,0
393979,75.9391,-393.966,0,0
395280.7,78.2341,-392.843,0,0
396582.325,80.0403,-392.375,0,0
397883.95,81.1029,-392.623,0,0
399185.575,81.0672,-393.1,0,0
400006.6,80.6331,-393.207,0,0

File: sample_4.csv
Frequency (Hz),Impedance (ohms),Phase (Radians),Temperature (C),Humidity (%)
10000.0,261.079,-11905,0,0
11301.625,231.845,-10547.1,0,0
12603.25,211.438,-9461.44,0,0
13904.875,191.637,-8578.67,0,0
15206.5,180.018,-7851.01,0,0
16508.125,188.229,-7235.51,0,0
17809.75,154.684,-6727.37,0,0
19111.375,144.057,-6268.78,0,0
20413.0,139.484,-5867.31,0,0
21714.625,144.755,-5521.52,0,0
23016.25,124.31,-5220.44,0,0
24317.875,114.712,-4935.21,0,0
25619.5,111.498,-4681.37,0,0
26921.1,105.886,-4451.41,0,0
28222.7,119.975,-4248.79,0,0
29524.4,112.35,-4067.96,0,0
30826,98.3084,-3895.41,0,0
32127.6,99.6665,-3734.58,0,0
33429.2,89.1433,-3593.89,0,0
34730.9,84.2821,-3454.59,0,0
36032.5,80.9268,-3326.99,0,0
37334.1,79.221,-3208.26,0,0
38635.7,76.5591,-3095.81,0,0
39937.4,76.7425,-2989.8,0,0
41239,79.6809,-2895.39,0,0
42540.6,78.81,-2806.65,0,0
43842.225,73.1471,-2723.13,0,0
45143.85,70.7447,-2641.96,0,0
46445.475,69.968,-2564.4,0,0
47747.1,69.5188,-2494.59,0,0
49048.725,65.6343,-2425.3,0,0
50350.35,64.2519,-2357.61,0,0
51651.975,63.568,-2292.7,0,0
52953.6,65.3163,-2229.76,0,0
54255.225,73.2948,-2173.22,0,0
55556.85,71.63,-2130.01,0,0
56858.475,65.4506,-2075.88,0,0
58160.1,66.1872,-2023.75,0,0
59461.7,70.3562,-1973.4,0,0
60763.3,80.0493,-1934.87,0,0
62065,69.8362,-1902.18,0,0
63366.6,63.989,-1856.57,0,0
64668.2,64.2845,-1813.1,0,0
65969.8,66.2953,-1771.87,0,0
67271.5,70.2766,-1735.91,0,0
68573.1,73.7485,-1706.87,0,0
69874.7,66.2138,-1676.89,0,0
71176.3,64.6349,-1642.34,0,0
72478,59.1173,-1610.98,0,0
73779.6,57.5552,-1574.21,0,0
75081.2,59.7348,-1541.12,0,0
76382.825,62.1383,-1512.19,0,0
77684.45,65.05,-1484.47,0,0
78986.075,63.7647,-1461.7,0,0
80287.7,60.7858,-1434.57,0,0
81589.325,60.2254,-1408.58,0,0
82890.95,58.9621,-1383.38,0,0
84192.575,57.8157,-1358.47,0,0
85494.2,56.9088,-1334.16,0,0
86795.825,56.1786,-1310.48,0,0
88097.45,54.8175,-1287.83,0,0
89399.075,53.3792,-1263.56,0,0
90700.7,53.2617,-1240.32,0,0
92002.3,53.6244,-1217.15,0,0
93303.9,54.8708,-1196.28,0,0
94605.6,53.4847,-1175.94,0,0
95907.2,52.9451,-1153.32,0,0
97208.8,53.6762,-1131.68,0,0
98510.4,55.0524,-1110.09,0,0
99812.1,57.5984,-1089.28,0,0
101114,61.81,-1070.81,0,0
102415,61.1027,-1056.24,0,0
103717,58.2208,-1033.51,0,0
105019,61.9556,-1009.86,0,0
106320.175,68.5299,-989.342,0,0
107621.8,75.3624,-971.407,0,0
108923.425,83.7813,-954.719,0,0
110225.05,92.0237,-942.078,0,0
111526.675,98.0929,-931.376,0,0
112828.3,103.214,-921.47,0,0
114129.925,106.497,-912.877,0,0
115431.55,108.475,-904.65,0,0
116733.175,108.032,-896.237,0,0
118034.8,105.877,-885.497,0,0
119336.425,106.701,-871.46,0,0
120638.05,112.11,-866.297,0,0
121939.675,104.978,-860.064,0,0
123241,100.191,-847.595,0,0
124543,97.0949,-834.921,0,0
125845,95.2491,-822.672,0,0
127146,91.8864,-811.689,0,0
128448,87.0397,-800.065,0,0
129749,80.2978,-785.444,0,0
131051,75.4469,-767.571,0,0
132353,72.9127,-748.82,0,0
133654,72.1576,-730.013,0,0
134956,72.6908,-710.899,0,0
136258,74.7978,-692.407,0,0
137559,77.3844,-675.099,0,0
138860.775,79.3337,-657.247,0,0
140162.4,82.6977,-638.259,0,0
141464.025,87.7152,-619.302,0,0
142765.65,93.6309,-600.906,0,0
144067.275,100.239,-582.601,0,0
145368.9,107.961,-563.823,0,0
146670.525,117.545,-545.227,0,0
147972.15,128.315,-527.193,0,0
149273.775,140.712,-509.288,0,0
150575.4,155.365,-491.028,0,0
151877.025,174.187,-474.619,0,0
153178.65,196.421,-462.464,0,0
154480,218.017,-457.22,0,0
155782,235.331,-453.38,0,0
157084,250.195,-451.173,0,0
158385,265.404,-445.538,0,0
159687,286.426,-443.225,0,0
160988,303.435,-450.888,0,0
162290,310.59,-456.157,0,0
163592,315.611,-456.352,0,0
164893,323.744,-449.958,0,0
166195,339.174,-442.099,0,0
167497,366.201,-441.225,0,0
168798,392.733,-456.688,0,0
170100,411.036,-485.079,0,0
171401.375,407.893,-523.267,0,0
172703.0,383.83,-549.942,0,0
174004.625,350.542,-556.052,0,0
175306.25,322.403,-545.431,0,0
176607.875,303.979,-523.497,0,0
177909.5,297.366,-499.962,0,0
179211.125,296.586,-478.721,0,0
180512.75,300.409,-459.942,0,0
181814.375,304.401,-443.447,0,0
183116.0,307.467,-426.331,0,0
184417.625,311.721,-405.569,0,0
185719.25,319.925,-381.978,0,0
187021,332.307,-356.803,0,0
188322,350.005,-329.675,0,0
189624,374.795,-301.902,0,0
190926,408.199,-275.452,0,0
192227,450.676,-253.035,0,0
193529,501.002,-238.431,0,0
194831,556.431,-232.908,0,0
196132,615.752,-235.12,0,0
197434,682.771,-247.26,0,0
198735,755.936,-277.586,0,0
200037,827.499,-335.04,0,0
201339,877.927,-417.335,0,0
202640.35,897.337,-507.744,0,0
203941.975,897.764,-592.152,0,0
205243.6,877.708,-669.605,0,0
206545.225,848.285,-735.193,0,0
207846.85,807.634,-799.972,0,0
209148.475,747.992,-845.37,0,0
210450.1,689.459,-866.912,0,0
211751.725,638.593,-873.013,0,0
213053.35,599.472,-871.125,0,0
214354.975,570.199,-863.911,0,0
215656.6,554.331,-863.834,0,0
216958.225,532.999,-871.018,0,0
218259.85,511.394,-875.321,0,0
219561,490.77,-879.958,0,0
220863,467.393,-884.986,0,0
222165,443.711,-886.975,0,0
223466,420.94,-887.054,0,0
224768,399.291,-887.983,0,0
226070,374.006,-889.127,0,0
227371,345.918,-885.329,0,0
228673,317.355,-875.62,0,0
229974,293.347,-859.615,0,0
231276,274.72,-842.007,0,0
232578,260.302,-824.222,0,0
233879,249.257,-806.839,0,0
235180.95,240.967,-790.255,0,0
236482.575,234.2,-775.808,0,0
237784.2,229.071,-760.878,0,0
239085.825,227.344,-747.833,0,0
240387.45,226.192,-737.938,0,0
241689.075,224.501,-730.103,0,0
242990.7,221.518,-724.073,0,0
244292.325,216.667,-718.175,0,0
245593.95,210.112,-710.351,0,0
246895.575,204.762,-700.431,0,0
248197.2,201.725,-690.259,0,0
249498.825,199.223,-681.092,0,0
250800,197.351,-672.919,0,0
252102,193.344,-665.819,0,0
253404,187.377,-655.444,0,0
254705,183.391,-642.167,0,0
256007,181.265,-625.722,0,0
257309,184.547,-607.471,0,0
258610,193.341,-589.554,0,0
259912,208.62,-575.231,0,0
261213,226.981,-565.736,0,0
262515,247.207,-562.693,0,0
263817,269.193,-566.741,0,0
265118,286.491,-579.035,0,0
266420,299.432,-595.267,0,0
267721.55,306.425,-616.233,0,0
269023.175,303.51,-640.655,0,0
270324.8,288.669,-656.065,0,0
271626.425,277.853,-663.765,0,0
272928.05,267.989,-672.19,0,0
274229.675,255.657,-681.041,0,0
275531.3,237.498,-687.768,0,0
276832.925,216.742,-686.992,0,0
278134.55,196.981,-677.1,0,0
279436.175,186.642,-660.767,0,0
280737.8,185.38,-649.382,0,0
282039.425,182.936,-642.314,0,0
283341,183.087,-634.934,0,0
284643,182.543,-632.889,0,0
285944,178.314,-631.307,0,0
287246,171.642,-625.986,0,0
288548,166.118,-616.36,0,0
289849,167.633,-602.637,0,0
291151,177.288,-593.852,0,0
292452,189.402,-593.422,0,0
293754,198.272,-601.696,0,0
295056,199.306,-614.298,0,0
296357,191.373,-625.141,0,0
297659,179.839,-629.051,0,0
298960.525,169.99,-628.666,0,0
300262.15,161.462,-627.352,0,0
301563.775,152.92,-624.628,0,0
302865.4,145.443,-620.579,0,0
304167.025,138.517,-615.589,0,0
305468.65,133.079,-609.625,0,0
306770.275,129.03,-603.478,0,0
308071.9,126.695,-597.992,0,0
309373.525,124.838,-594.053,0,0
310675.15,121.811,-590.997,0,0
311976.775,118.266,-586.896,0,0
313278.4,115.382,-582.241,0,0
314580,113.672,-577.933,0,0
315882,112.372,-574.24,0,0
317183,111.124,-571.191,0,0
318485,109.581,-569.069,0,0
319787,107.457,-567.876,0,0
321088,103.462,-567.389,0,0
322390,97.3155,-565.745,0,0
323691,90.3005,-560.936,0,0
324993,85.7378,-553.886,0,0
326295,82.5948,-547.236,0,0
327596,79.9444,-540.57,0,0
328898,78.179,-533.558,0,0
330200,77.8907,-526.208,0,0
331501.125,79.0207,-520.15,0,0
332802.75,80.4946,-515.757,0,0
334104.375,80.6991,-513.227,0,0
335406.0,79.3218,-510.259,0,0
336707.625,77.201,-506.028,0,0
338009.25,75.7794,-500.426,0,0
339310.875,75.3099,-494.204,0,0
340612.5,76.3073,-487.509,0,0
341914.125,79.3105,-481.684,0,0
343215.75,83.9263,-478.165,0,0
344517.375,87.7118,-477.266,0,0
345819.0,89.6151,-477.729,0,0
347121,89.6735,-478.21,0,0
348422,88.3359,-478.074,0,0
349724,86.4306,-476.815,0,0
351025,84.2521,-474.642,0,0
352327,82.3825,-471.448,0,0
353629,81.3337,-467.447,0,0
354930,81.4658,-464.193,0,0
356232,81.4483,-461.542,0,0
357534,80.9028,-459.296,0,0
358835,79.757,-456.58,0,0
360137,78.7019,-453.053,0,0
361438,78.2251,-448.899,0,0
362740.1,78.8468,-444.954,0,0
364041.725,79.5676,-441.86,0,0
365343.35,79.5268,-438.601,0,0
366644.975,79.7755,-434.188,0,0
367946.6,81.4718,-429.555,0,0
369248.225,84.4426,-425.203,0,0
370549.85,88.7346,-421.824,0,0
371851.475,94.2367,-420.396,0,0
373153.1,99.2492,-422.018,0,0
374454.725,101.64,-425.719,0,0
375756.35,100.997,-428.448,0,0
377057.975,100.102,-429.729,0,0
378359.6,99.0679,-430.558,0,0
379661,97.6396,-430.978,0,0
380963,95.9452,-430.975,0,0
382264,95.1664,-429.683,0,0
383566,95.8802,-430.682,0,0
384868,93.8606,-433.656,0,0
386169,88.979,-435.044,0,0
387471,83.26,-433.428,0,0
388773,79.3579,-429.067,0,0
390074,78.6511,-424.788,0,0
391376,79.4287,-423.056,0,0
392677,77.9807,-423.924,0,0
393979,73.8102,-423.377,0,0
395280.7,69.3248,-420.563,0,0
396582.325,65.9955,-416.439,0,0
397883.95,63.4639,-412.101,0,0
399185.575,61.54,-407.301,0,0
400006.6,60.6525,-404.043,0,0