Folder: ML_Dmg_Mehdi_Dataset/Accelerated corrosion test data/2025-10-18_06-00-03 (part 3)

File: sample_7.csv
Frequency (Hz),Impedance (ohms),Phase (Radians),Temperature (C),Humidity (%)
10000.0,277.76,-12143.6,0,0
11301.625,250.328,-10741.2,0,0
12603.25,264.302,-9687.97,0,0
13904.875,211.974,-8790.15,0,0
15206.5,198.955,-8048.03,0,0
16508.125,173.158,-7404.59,0,0
17809.75,170.541,-6847.35,0,0
19111.375,182.367,-6394.75,0,0
20413.0,170.067,-6014.28,0,0
21714.625,158.302,-5670.12,0,0
23016.25,131.3,-5341.2,0,0
24317.875,123.837,-5046.47,0,0
25619.5,119.483,-4781.19,0,0
26921.1,121.984,-4534.53,0,0
28222.7,182.658,-4312.18,0,0
29524.4,142.761,-4197.79,0,0
30826,131.513,-4006.1,0,0
32127.6,120.26,-3859.2,0,0
33429.2,102.539,-3708.14,0,0
34730.9,93.2504,-3562.39,0,0
36032.5,89.1763,-3427.99,0,0
37334.1,86.7915,-3303.22,0,0
38635.7,87.3767,-3185.37,0,0
39937.4,100.355,-3085.78,0,0
41239,87.8966,-2999.65,0,0
42540.6,80.5627,-2902.34,0,0
43842.225,79.247,-2811.95,0,0
45143.85,80.9947,-2734.1,0,0
46445.475,77.9173,-2662.49,0,0
47747.1,71.0328,-2585.25,0,0
49048.725,68.4773,-2514.63,0,0
50350.35,66.5584,-2447.17,0,0
51651.975,64.9469,-2383.32,0,0
52953.6,64.2089,-2322.49,0,0
54255.225,62.6,-2265.65,0,0
55556.85,61.265,-2210.73,0,0
56858.475,60.4202,-2157.93,0,0
58160.1,59.6967,-2107.27,0,0
59461.7,59.547,-2059.82,0,0
60763.3,59.0629,-2015.7,0,0
62065,57.1106,-1972.11,0,0
63366.6,55.7666,-1929.2,0,0
64668.2,55.1972,-1888.38,0,0
65969.8,55.0449,-1849.64,0,0
67271.5,53.3808,-1812.8,0,0
68573.1,52.2192,-1775.94,0,0
69874.7,51.6372,-1740.6,0,0
71176.3,51.4387,-1706.57,0,0
72478,50.5334,-1674.15,0,0
73779.6,49.502,-1642.33,0,0
75081.2,48.9814,-1611.36,0,0
76382.825,48.3864,-1581.51,0,0
77684.45,48.1169,-1552.47,0,0
78986.075,47.7834,-1524.42,0,0
80287.7,47.6518,-1497.32,0,0
81589.325,47.2457,-1470.97,0,0
82890.95,46.8769,-1445.22,0,0
84192.575,46.8287,-1419.92,0,0
85494.2,47.1587,-1395.74,0,0
86795.825,47.2325,-1372.29,0,0
88097.45,47.3264,-1349.67,0,0
89399.075,46.7677,-1327.32,0,0
90700.7,46.8935,-1304.91,0,0
92002.3,47.0736,-1283.02,0,0
93303.9,47.5094,-1261.41,0,0
94605.6,50.218,-1241.22,0,0
95907.2,49.8136,-1224.16,0,0
97208.8,49.0072,-1204.01,0,0
98510.4,50.0014,-1184.83,0,0
99812.1,50.0492,-1166.36,0,0
101114,51.0266,-1146.9,0,0
102415,52.7283,-1128.72,0,0
103717,55.3948,-1111.67,0,0
105019,56.5269,-1096.68,0,0
106320.175,56.1109,-1080.96,0,0
107621.8,56.8563,-1064.04,0,0
108923.425,57.8477,-1047.63,0,0
110225.05,58.5892,-1030.62,0,0
111526.675,61.4212,-1013.66,0,0
112828.3,66.0997,-997.17,0,0
114129.925,71.4616,-982.881,0,0
115431.55,78.0086,-969.563,0,0
116733.175,86.8683,-960.768,0,0
118034.8,91.7423,-956.064,0,0
119336.425,95.5576,-954.39,0,0
120638.05,88.8471,-956.294,0,0
121939.675,76.7283,-946.854,0,0
123241,68.8296,-933.905,0,0
124543,63.8627,-919.212,0,0
125845,59.5054,-904.945,0,0
127146,55.8287,-890.681,0,0
128448,53.79,-875.348,0,0
129749,51.9519,-860.609,0,0
131051,50.7076,-846.312,0,0
132353,49.6273,-830.74,0,0
133654,49.8875,-815.171,0,0
134956,52.5942,-800.066,0,0
136258,56.2981,-787.529,0,0
137559,57.4051,-779.197,0,0
138860.775,54.5348,-767.079,0,0
140162.4,54.3384,-752.783,0,0
141464.025,54.2921,-739.167,0,0
142765.65,55.2438,-724.446,0,0
144067.275,58.106,-710.412,0,0
145368.9,60.5092,-698.566,0,0
146670.525,61.5194,-685.577,0,0
147972.15,63.0839,-672.33,0,0
149273.775,63.3545,-659.776,0,0
150575.4,63.3615,-644.445,0,0
151877.025,64.8568,-627.005,0,0
153178.65,68.4865,-608.788,0,0
154480,73.9004,-590.275,0,0
155782,81.9372,-571.303,0,0
157084,92.5722,-553.194,0,0
158385,106.398,-537.791,0,0
159687,118.959,-528.195,0,0
160988,123.734,-516.11,0,0
162290,130.642,-493.897,0,0
163592,146.877,-469.154,0,0
164893,171.514,-447.93,0,0
166195,197.591,-426.136,0,0
167497,241.187,-404.773,0,0
168798,299.593,-399.795,0,0
170100,360.816,-422.424,0,0
171401.375,408.728,-472.622,0,0
172703.0,432.775,-536.008,0,0
174004.625,416.874,-610.694,0,0
175306.25,367.299,-643.607,0,0
176607.875,332.467,-637.67,0,0
177909.5,332.687,-629.907,0,0
179211.125,342.193,-659.273,0,0
180512.75,310.12,-688.443,0,0
181814.375,274.664,-704.621,0,0
183116.0,229.298,-702.058,0,0
184417.625,195.622,-681.946,0,0
185719.25,173.152,-659.987,0,0
187021,155.798,-632.689,0,0
188322,149.369,-606.504,0,0
189624,144.247,-586.75,0,0
190926,137.154,-564.975,0,0
192227,135.494,-540.856,0,0
193529,136.389,-515.529,0,0
194831,141.921,-490.989,0,0
196132,152.496,-468.775,0,0
197434,164.492,-450.909,0,0
198735,174.146,-436.043,0,0
200037,181.049,-417.76,0,0
201339,192.718,-394.934,0,0
202640.35,210.545,-369.935,0,0
203941.975,236.112,-347.462,0,0
205243.6,266.495,-327.597,0,0
206545.225,309.093,-315.463,0,0
207846.85,345.737,-318.105,0,0
209148.475,380.77,-312.636,0,0
210450.1,437.692,-317.306,0,0
211751.725,488.264,-354.241,0,0
213053.35,517.689,-402.512,0,0
214354.975,533.456,-446.513,0,0
215656.6,538.008,-491.434,0,0
216958.225,537.859,-537.625,0,0
218259.85,518.328,-582.264,0,0
219561,483.007,-618.317,0,0
220863,441.961,-623.827,0,0
222165,417.873,-615.195,0,0
223466,408.388,-606.323,0,0
224768,404.246,-603.05,0,0
226070,402.592,-596.421,0,0
227371,412.013,-596.59,0,0
228673,421.428,-606.691,0,0
229974,427.497,-624.964,0,0
231276,427.366,-649.897,0,0
232578,419.108,-675.395,0,0
233879,396.704,-706.324,0,0
235180.95,356.204,-723.156,0,0
236482.575,318.995,-715.305,0,0
237784.2,297.543,-705.977,0,0
239085.825,272.453,-691.558,0,0
240387.45,264.452,-671.608,0,0
241689.075,259.424,-666.897,0,0
242990.7,243.266,-658.584,0,0
244292.325,233.405,-639.967,0,0
245593.95,236.753,-625.994,0,0
246895.575,235.238,-620.855,0,0
248197.2,228.693,-612.115,0,0
249498.825,225.829,-599.044,0,0
250800,227.16,-584.247,0,0
252102,235.348,-570.813,0,0
253404,250.118,-563.073,0,0
254705,264.716,-567.308,0,0
256007,270.459,-577.519,0,0
257309,268.665,-586.053,0,0
258610,263.531,-588.65,0,0
259912,260.927,-590.355,0,0
261213,256.126,-590.405,0,0
262515,253.2,-585.482,0,0
263817,259.253,-582.167,0,0
265118,263.174,-588.989,0,0
266420,260.864,-593.274,0,0
267721.55,261.204,-598.304,0,0
269023.175,254.957,-604.444,0,0
270324.8,250.588,-603.829,0,0
271626.425,254.325,-603.144,0,0
272928.05,263.469,-618.027,0,0
274229.675,252.806,-645.755,0,0
275531.3,223.446,-663.703,0,0
276832.925,186.905,-661.873,0,0
278134.55,157.894,-643.338,0,0
279436.175,143.69,-619.464,0,0
280737.8,139.058,-598.059,0,0
282039.425,138.486,-583.758,0,0
283341,134.544,-569.538,0,0
284643,136.029,-552.039,0,0
285944,143.406,-538.204,0,0
287246,152.429,-531.542,0,0
288548,156.05,-528.806,0,0
289849,156.772,-523.056,0,0
291151,158.775,-514.419,0,0
292452,164.01,-506.282,0,0
293754,170.935,-498.56,0,0
295056,179.512,-492.135,0,0
296357,190.429,-487.002,0,0
297659,203.86,-484.21,0,0
298960.525,219.11,-485.864,0,0
300262.15,234.771,-491.199,0,0
301563.775,252.039,-502.278,0,0
302865.4,268.931,-525.114,0,0
304167.025,268.571,-559.365,0,0
305468.65,252.895,-584.04,0,0
306770.275,232.5,-600.514,0,0
308071.9,210.447,-608.773,0,0
309373.525,188.775,-609.974,0,0
310675.15,171.023,-605.443,0,0
311976.775,157.468,-599.407,0,0
313278.4,145.819,-593.464,0,0
314580,134.609,-585.839,0,0
315882,126.512,-576.114,0,0
317183,121.567,-567.166,0,0
318485,118.01,-559.33,0,0
319787,115.68,-552.11,0,0
321088,114.311,-546.54,0,0
322390,112.59,-541.891,0,0
323691,110.965,-537.552,0,0
324993,109.326,-533.602,0,0
326295,108.173,-529.752,0,0
327596,107.534,-527.284,0,0
328898,105.606,-525.972,0,0
330200,102.753,-524.553,0,0
331501.125,99.1117,-523.179,0,0
332802.75,94.2452,-521.336,0,0
334104.375,88.6065,-518.131,0,0
335406.0,83.3285,-513.688,0,0
336707.625,78.416,-508.327,0,0
338009.25,74.1733,-502.046,0,0
339310.875,70.9583,-495.561,0,0
340612.5,68.3162,-488.922,0,0
341914.125,66.2385,-481.909,0,0
343215.75,65.2999,-474.792,0,0
344517.375,65.5286,-468.003,0,0
345819.0,66.5707,-462.529,0,0
347121,67.2232,-458.495,0,0
348422,66.5063,-454.738,0,0
349724,65.1162,-449.911,0,0
351025,64.1896,-444.06,0,0
352327,64.2769,-437.485,0,0
353629,65.9875,-431.233,0,0
354930,68.7042,-426.471,0,0
356232,71.1341,-423.402,0,0
357534,71.8235,-421.263,0,0
358835,70.8744,-418.095,0,0
360137,70.2285,-412.854,0,0
361438,71.0512,-407.002,0,0
362740.1,73.119,-401.273,0,0
364041.725,76.2658,-396.323,0,0
365343.35,79.9156,-392.376,0,0
366644.975,83.5309,-389.756,0,0
367946.6,86.5465,-387.561,0,0
369248.225,89.577,-385.952,0,0
370549.85,92.1008,-385.371,0,0
371851.475,92.6328,-385.187,0,0
373153.1,91.9405,-383.047,0,0
374454.725,92.5374,-379.511,0,0
375756.35,94.1451,-376.407,0,0
377057.975,95.7458,-373.942,0,0
378359.6,96.8267,-371.112,0,0
379661,98.5989,-367.607,0,0
380963,101.073,-364.522,0,0
382264,103.741,-361.835,0,0
383566,106.507,-359.462,0,0
384868,109.318,-357.2,0,0
386169,111.924,-355.383,0,0
387471,114.387,-353.28,0,0
388773,116.781,-350.427,0,0
390074,120.844,-346.981,0,0
391376,126.062,-345.117,0,0
392677,130.85,-344.09,0,0
393979,135.379,-343.332,0,0
395280.7,139.922,-341.977,0,0
396582.325,146.074,-340.077,0,0
397883.95,155.12,-338.967,0,0
399185.575,166.917,-341.661,0,0
400006.6,174.782,-346.779,0,0

File: sample_8.csv
Frequency (Hz),Impedance (ohms),Phase (Radians),Temperature (C),Humidity (%)
10000.0,309.569,-11033.9,0,0
11301.625,274.691,-9778.02,0,0
12603.25,252.948,-8780.86,0,0
13904.875,224.799,-7975.72,0,0
15206.5,204.712,-7297.81,0,0
16508.125,188.495,-6728,0,0
17809.75,175.19,-6239.14,0,0
19111.375,167.488,-5813.72,0,0
20413.0,160.519,-5450.39,0,0
21714.625,149.405,-5128.85,0,0
23016.25,144.22,-4843.43,0,0
24317.875,132.54,-4585.77,0,0
25619.5,125.074,-4351.25,0,0
26921.1,120.272,-4139.53,0,0
28222.7,117.814,-3948.49,0,0
29524.4,113.931,-3774.9,0,0
30826,109.648,-3616.72,0,0
32127.6,105.979,-3467.55,0,0
33429.2,105.493,-3329.91,0,0
34730.9,106.582,-3204.62,0,0
36032.5,109.888,-3093.3,0,0
37334.1,106.566,-2993.4,0,0
38635.7,96.5353,-2896.18,0,0
39937.4,88.3547,-2798.89,0,0
41239,85.9781,-2707.95,0,0
42540.6,82.6829,-2622.56,0,0
43842.225,82.0937,-2544.44,0,0
45143.85,77.8251,-2469.82,0,0
46445.475,74.6956,-2398.26,0,0
47747.1,72.7802,-2330.36,0,0
49048.725,70.8349,-2266.66,0,0
50350.35,68.8031,-2205.3,0,0
51651.975,67.723,-2146.86,0,0
52953.6,67.345,-2091.76,0,0
54255.225,66.4741,-2041.5,0,0
55556.85,63.3814,-1991.81,0,0
56858.475,61.2401,-1942.81,0,0
58160.1,60.2135,-1895.96,0,0
59461.7,59.5545,-1851.87,0,0
60763.3,58.2556,-1808.98,0,0
62065,57.8807,-1767.79,0,0
63366.6,58.1331,-1728.02,0,0
64668.2,58.4433,-1691.41,0,0
65969.8,57.6521,-1656.12,0,0
67271.5,55.7896,-1621.59,0,0
68573.1,54.8781,-1587.48,0,0
69874.7,54.2958,-1554.21,0,0
71176.3,54.374,-1522.55,0,0
72478,54.4351,-1492.47,0,0
73779.6,53.7235,-1463.23,0,0
75081.2,52.8085,-1434.59,0,0
76382.825,52.4386,-1406.45,0,0
77684.45,52.1152,-1379.55,0,0
78986.075,51.5145,-1353.1,0,0
80287.7,51.0096,-1326.88,0,0
81589.325,50.9562,-1300.87,0,0
82890.95,51.7334,-1275.87,0,0
84192.575,52.9187,-1251.9,0,0
85494.2,53.6561,-1229.94,0,0
86795.825,53.0732,-1206.73,0,0
88097.45,53.7864,-1184.02,0,0
89399.075,54.4015,-1161.53,0,0
90700.7,56.056,-1138.65,0,0
92002.3,60.191,-1117.31,0,0
93303.9,63.5266,-1098.92,0,0
94605.6,64.1132,-1080.57,0,0
95907.2,65.7163,-1060.65,0,0
97208.8,69.262,-1041.02,0,0
98510.4,74.2148,-1022.7,0,0
99812.1,79.5058,-1007.49,0,0
101114,84.6457,-993.593,0,0
102415,88.0273,-982.498,0,0
103717,87.8318,-971.959,0,0
105019,86.9468,-959.453,0,0
106320.175,85.6346,-945.027,0,0
107621.8,85.9234,-931.285,0,0
108923.425,85.2866,-916.545,0,0
110225.05,86.9028,-902.347,0,0
111526.675,87.7255,-889.466,0,0
112828.3,88.7793,-877.377,0,0
114129.925,89.0351,-865.422,0,0
115431.55,89.325,-853.399,0,0
116733.175,87.9299,-841.767,0,0
118034.8,87.9498,-828.817,0,0
119336.425,87.7003,-816.812,0,0
120638.05,86.7044,-804.912,0,0
121939.675,86.0193,-792.562,0,0
123241,85.1184,-780.262,0,0
124543,84.0364,-767.591,0,0
125845,82.8456,-754.677,0,0
127146,81.802,-740.945,0,0
128448,81.5816,-726.637,0,0
129749,81.9106,-712.905,0,0
131051,82.8483,-698.266,0,0
132353,84.4247,-685.434,0,0
133654,84.9622,-672.531,0,0
134956,85.4871,-658.256,0,0
136258,88.2861,-644.348,0,0
137559,89.0791,-632.925,0,0
138860.775,87.8547,-617.76,0,0
140162.4,89.6938,-601.319,0,0
141464.025,92.3887,-585.505,0,0
142765.65,94.9331,-568.954,0,0
144067.275,99.2615,-551.186,0,0
145368.9,105.311,-532.797,0,0
146670.525,113.779,-514.901,0,0
147972.15,123.715,-498.869,0,0
149273.775,133.931,-479.44,0,0
150575.4,151.654,-459.974,0,0
151877.025,178.193,-449.142,0,0
153178.65,199.6,-451.07,0,0
154480,210.76,-456.76,0,0
155782,220.695,-453.261,0,0
157084,230.38,-466.682,0,0
158385,219.283,-463.331,0,0
159687,226.81,-454.073,0,0
160988,223.975,-455.084,0,0
162290,223.478,-439.746,0,0
163592,232.888,-430.894,0,0
164893,239.778,-426.153,0,0
166195,243.138,-428.538,0,0
167497,233.125,-424.902,0,0
168798,224.558,-410.945,0,0
170100,219.18,-388.8,0,0
171401.375,219.432,-363.844,0,0
172703.0,226.724,-332.606,0,0
174004.625,243.611,-305.64,0,0
175306.25,260.291,-284.768,0,0
176607.875,277.414,-257.127,0,0
177909.5,303.689,-231.438,0,0
179211.125,338.061,-203.687,0,0
180512.75,379.527,-184.392,0,0
181814.375,427.707,-169.594,0,0
183116.0,484.047,-172.788,0,0
184417.625,527.209,-189.113,0,0
185719.25,567.33,-201.348,0,0
187021,604.734,-225.577,0,0
188322,631.041,-245.631,0,0
189624,657.77,-267.999,0,0
190926,675.935,-281.072,0,0
192227,712.25,-291.531,0,0
193529,742.073,-297.206,0,0
194831,815.879,-313.021,0,0
196132,885.782,-371.095,0,0
197434,938.194,-462.979,0,0
198735,952.525,-575.998,0,0
200037,922.855,-681.129,0,0
201339,866.026,-759.501,0,0
202640.35,795.354,-824.711,0,0
203941.975,712.366,-839.581,0,0
205243.6,656.948,-835.602,0,0
206545.225,608.098,-825.365,0,0
207846.85,582.863,-799.163,0,0
209148.475,576.694,-789.285,0,0
210450.1,570.323,-784.647,0,0
211751.725,571.512,-787.378,0,0
213053.35,569.565,-802.476,0,0
214354.975,557.026,-820.032,0,0
215656.6,544.046,-833.701,0,0
216958.225,527.501,-850.322,0,0
218259.85,507.579,-864.979,0,0
219561,482.101,-880.797,0,0
220863,448.686,-890.425,0,0
222165,414.596,-885.788,0,0
223466,389.658,-874.175,0,0
224768,374.861,-861.284,0,0
226070,367.913,-855.825,0,0
227371,357.212,-858.931,0,0
228673,340.99,-861.264,0,0
229974,324.558,-863.821,0,0
231276,301.842,-867.032,0,0
232578,275.775,-862.482,0,0
233879,250.215,-853.811,0,0
235180.95,225.899,-837.743,0,0
236482.575,208.655,-816.89,0,0
237784.2,197.657,-796.257,0,0
239085.825,191.463,-776.014,0,0
240387.45,191.376,-760.701,0,0
241689.075,191.018,-751.304,0,0
242990.7,185.255,-744.483,0,0
244292.325,178.789,-733.641,0,0
245593.95,174.897,-722.157,0,0
246895.575,172.852,-711.198,0,0
248197.2,170.709,-703.002,0,0
249498.825,167.75,-693.467,0,0
250800,165.785,-683.298,0,0
252102,166.818,-673.104,0,0
253404,169.366,-666.58,0,0
254705,169.222,-662.709,0,0
256007,166.62,-658.3,0,0
257309,162.053,-651.373,0,0
258610,159.495,-640.404,0,0
259912,161.408,-628.915,0,0
261213,165.552,-620.393,0,0
262515,170.339,-613.399,0,0
263817,174.436,-607.219,0,0
265118,178.43,-600.273,0,0
266420,185.753,-590.645,0,0
267721.55,200.863,-582.76,0,0
269023.175,222.152,-584.195,0,0
270324.8,241.165,-596.757,0,0
271626.425,254.504,-619.081,0,0
272928.05,256.472,-648.289,0,0
274229.675,241.454,-678.647,0,0
275531.3,212.164,-694.246,0,0
276832.925,185.731,-694.819,0,0
278134.55,164.327,-689.014,0,0
279436.175,147.151,-679.059,0,0
280737.8,136.097,-665.781,0,0
282039.425,131.061,-654.247,0,0
283341,128.249,-645.982,0,0
284643,124.966,-638.804,0,0
285944,124.252,-630.647,0,0
287246,127.935,-626.288,0,0
288548,130.307,-630.206,0,0
289849,123.911,-636.318,0,0
291151,112.112,-637.101,0,0
292452,101.113,-633.27,0,0
293754,91.4275,-626.878,0,0
295056,83.1609,-618.947,0,0
296357,76.929,-609.734,0,0
297659,72.518,-600.763,0,0
298960.525,68.9198,-591.677,0,0
300262.15,66.7436,-582.398,0,0
301563.775,66.1382,-573.358,0,0
302865.4,67.1962,-565.24,0,0
304167.025,69.1339,-558.843,0,0
305468.65,71.033,-553.834,0,0
306770.275,72.8766,-550.079,0,0
308071.9,73.9234,-547.115,0,0
309373.525,74.7396,-545.281,0,0
310675.15,73.578,-543.437,0,0
311976.775,72.4591,-540.669,0,0
313278.4,71.4963,-538.267,0,0
314580,69.7359,-535.928,0,0
315882,67.5899,-532.82,0,0
317183,65.925,-529.035,0,0
318485,64.8002,-525.482,0,0
319787,63.9356,-521.835,0,0
321088,63.7653,-518.876,0,0
322390,62.8247,-516.851,0,0
323691,61.2603,-514.837,0,0
324993,58.8944,-512.585,0,0
326295,56.1538,-509.484,0,0
327596,53.8258,-505.745,0,0
328898,51.7946,-501.861,0,0
330200,49.8812,-497.626,0,0
331501.125,48.2859,-493.221,0,0
332802.75,47.0864,-488.626,0,0
334104.375,46.4968,-483.91,0,0
335406.0,46.5869,-479.51,0,0
336707.625,46.9643,-476.048,0,0
338009.25,46.996,-473.043,0,0
339310.875,46.4636,-470.247,0,0
340612.5,45.6041,-467.261,0,0
341914.125,44.4957,-464.045,0,0
343215.75,43.4599,-460.29,0,0
344517.375,42.8001,-456.272,0,0
345819.0,42.3105,-452.214,0,0
347121,42.2304,-448.049,0,0
348422,42.5739,-443.983,0,0
349724,43.1381,-440.096,0,0
351025,43.9985,-436.327,0,0
352327,45.2727,-432.992,0,0
353629,46.6126,-430.2,0,0
354930,47.6913,-427.804,0,0
356232,48.5966,-425.594,0,0
357534,49.2917,-423.567,0,0
358835,49.7187,-421.494,0,0
360137,50.1819,-419.428,0,0
361438,50.6121,-417.355,0,0
362740.1,50.9931,-415.376,0,0
364041.725,51.2458,-413.499,0,0
365343.35,51.4717,-411.591,0,0
366644.975,51.5781,-409.654,0,0
367946.6,51.6812,-407.655,0,0
369248.225,51.8545,-405.406,0,0
370549.85,52.6403,-403.221,0,0
371851.475,53.6169,-401.839,0,0
373153.1,54.0491,-401.029,0,0
374454.725,53.7176,-400.348,0,0
375756.35,52.842,-399.201,0,0
377057.975,52.0718,-397.305,0,0
378359.6,51.7031,-395.74,0,0
379661,50.7227,-394.106,0,0
380963,50.4172,-391.522,0,0
382264,50.7934,-390.154,0,0
383566,50.071,-389.343,0,0
384868,48.5135,-387.948,0,0
386169,46.8722,-385.877,0,0
387471,45.4374,-383.257,0,0
388773,44.3239,-380.209,0,0
390074,43.7802,-377.075,0,0
391376,43.5685,-374.199,0,0
392677,43.1865,-371.467,0,0
393979,42.8366,-368.668,0,0
395280.7,42.6813,-365.663,0,0
396582.325,42.8136,-362.673,0,0
397883.95,43.055,-359.946,0,0
399185.575,43.2197,-357.336,0,0
400006.6,43.2875,-355.681,0,0