Folder: ML_Dmg_Mehdi_Dataset/Accelerated corrosion test data/2025-10-13_18-00-03 (part 2)

File: sample_3.csv
Frequency (Hz),Impedance (ohms),Phase (Radians),Temperature (C),Humidity (%)
10000.0,252.484,-11749.3,0,0
11301.625,225.103,-10407.5,0,0
12603.25,204.351,-9340.57,0,0
13904.875,186.504,-8470.91,0,0
15206.5,174.431,-7743.25,0,0
16508.125,162.048,-7150.07,0,0
17809.75,157.448,-6624.56,0,0
19111.375,147.208,-6174.9,0,0
20413.0,160.514,-5778.34,0,0
21714.625,139.228,-5453.92,0,0
23016.25,128.29,-5150.17,0,0
24317.875,120.171,-4872.5,0,0
25619.5,113.498,-4626.08,0,0
26921.1,108.768,-4396.57,0,0
28222.7,104.198,-4189.58,0,0
29524.4,108.562,-4014.53,0,0
30826,101.387,-3842.61,0,0
32127.6,102.12,-3678.03,0,0
33429.2,99.3325,-3554.99,0,0
34730.9,88.1141,-3416.92,0,0
36032.5,83.4399,-3289.58,0,0
37334.1,80.9161,-3172.29,0,0
38635.7,78.346,-3062.71,0,0
39937.4,76.1609,-2960.52,0,0
41239,74.4931,-2864.09,0,0
42540.6,73.4501,-2774.46,0,0
43842.225,72.0401,-2689.41,0,0
45143.85,70.9134,-2610.01,0,0
46445.475,69.8575,-2534.39,0,0
47747.1,70.7468,-2462.26,0,0
49048.725,68.712,-2396.95,0,0
50350.35,66.7988,-2331.98,0,0
51651.975,66.4945,-2269.58,0,0
52953.6,66.7185,-2209.92,0,0
54255.225,69.8786,-2155.21,0,0
55556.85,66.7935,-2108.32,0,0
56858.475,61.7324,-2055.38,0,0
58160.1,61.3498,-2003.61,0,0
59461.7,61.8906,-1954.49,0,0
60763.3,63.2472,-1907.99,0,0
62065,65.395,-1863.41,0,0
63366.6,69.0033,-1819.92,0,0
64668.2,77.9977,-1778.78,0,0
65969.8,92.9066,-1754.49,0,0
67271.5,75.6706,-1728.26,0,0
68573.1,75.84,-1691.06,0,0
69874.7,75.7697,-1661.95,0,0
71176.3,70.5676,-1630.87,0,0
72478,69.2628,-1598.5,0,0
73779.6,67.4906,-1570.4,0,0
75081.2,63.8301,-1541.9,0,0
76382.825,60.438,-1512.67,0,0
77684.45,57.9938,-1483.86,0,0
78986.075,55.9164,-1455.43,0,0
80287.7,54.4316,-1427.57,0,0
81589.325,53.4332,-1400.42,0,0
82890.95,52.9483,-1374.08,0,0
84192.575,52.6934,-1348.55,0,0
85494.2,52.6522,-1323.62,0,0
86795.825,52.8291,-1299.38,0,0
88097.45,53.3215,-1275.68,0,0
89399.075,54.8027,-1251.98,0,0
90700.7,56.9753,-1230.47,0,0
92002.3,59.36,-1209.82,0,0
93303.9,62.1808,-1191.29,0,0
94605.6,62.9429,-1176.92,0,0
95907.2,57.5709,-1159.09,0,0
97208.8,56.3447,-1137.81,0,0
98510.4,56.1255,-1118.22,0,0
99812.1,55.5568,-1099.24,0,0
101114,55.1831,-1079.53,0,0
102415,56.7219,-1059.04,0,0
103717,60.2902,-1041.59,0,0
105019,63.4159,-1027.5,0,0
106320.175,62.8727,-1013.64,0,0
107621.8,60.7814,-997.832,0,0
108923.425,59.0723,-980.376,0,0
110225.05,59.1498,-961.933,0,0
111526.675,61.4133,-944.208,0,0
112828.3,63.8179,-928.299,0,0
114129.925,65.3297,-912.426,0,0
115431.55,67.6087,-895.719,0,0
116733.175,71.4997,-879.367,0,0
118034.8,77.3377,-863.829,0,0
119336.425,84.0687,-851.708,0,0
120638.05,89.7559,-845.852,0,0
121939.675,86.6309,-837.453,0,0
123241,87.33,-824.498,0,0
124543,88.6086,-813.124,0,0
125845,89.8047,-802.93,0,0
127146,89.0351,-793.074,0,0
128448,86.9111,-782.094,0,0
129749,85.7018,-768.802,0,0
131051,86.999,-756.296,0,0
132353,86.2199,-745.16,0,0
133654,85.5691,-733.44,0,0
134956,83.8177,-720.899,0,0
136258,82.2621,-707.312,0,0
137559,82.1252,-692.042,0,0
138860.775,83.4125,-678.595,0,0
140162.4,82.7377,-664.724,0,0
141464.025,82.3832,-650.715,0,0
142765.65,81.7526,-634.578,0,0
144067.275,82.321,-617.373,0,0
145368.9,84.0605,-599.395,0,0
146670.525,86.8113,-580.542,0,0
147972.15,91.3376,-560.753,0,0
149273.775,98.2409,-540.286,0,0
150575.4,109.081,-520.403,0,0
151877.025,121.701,-503.916,0,0
153178.65,134.46,-490.861,0,0
154480,143.975,-478.918,0,0
155782,152.172,-462.932,0,0
157084,164.255,-444.811,0,0
158385,180.39,-434.217,0,0
159687,185.014,-418.803,0,0
160988,201.54,-391.798,0,0
162290,228.141,-365.3,0,0
163592,266.064,-345.975,0,0
164893,315.054,-336.521,0,0
166195,365.386,-352.442,0,0
167497,401.489,-384.458,0,0
168798,422.016,-422.236,0,0
170100,417.267,-463.791,0,0
171401.375,401.953,-477.03,0,0
172703.0,396.791,-478.398,0,0
174004.625,405.454,-486.231,0,0
175306.25,405.637,-502.333,0,0
176607.875,404.015,-519.347,0,0
177909.5,382.655,-535.921,0,0
179211.125,360.995,-527.092,0,0
180512.75,357.449,-513.684,0,0
181814.375,362.935,-511.647,0,0
183116.0,354.167,-516.836,0,0
184417.625,340.465,-512.408,0,0
185719.25,327.849,-498.851,0,0
187021,324.813,-475.699,0,0
188322,333.432,-457.966,0,0
189624,339.238,-445.212,0,0
190926,348.364,-432.216,0,0
192227,356.993,-419.327,0,0
193529,368.522,-399.71,0,0
194831,393.566,-382.9,0,0
196132,426.684,-378.809,0,0
197434,450.059,-392.149,0,0
198735,462.943,-401.389,0,0
200037,470.935,-407.785,0,0
201339,476.081,-400.707,0,0
202640.35,495.949,-390.135,0,0
203941.975,527.518,-390.948,0,0
205243.6,555.321,-406.61,0,0
206545.225,566.566,-421.496,0,0
207846.85,585.676,-423.615,0,0
209148.475,617.055,-433.306,0,0
210450.1,648.108,-456.25,0,0
211751.725,672.928,-488.814,0,0
213053.35,692.44,-523.265,0,0
214354.975,705.688,-564.976,0,0
215656.6,710.809,-609.019,0,0
216958.225,708.288,-655.596,0,0
218259.85,693.899,-699.078,0,0
219561,673.301,-734.172,0,0
220863,653.101,-769.069,0,0
222165,624.565,-805.069,0,0
223466,580.348,-830.359,0,0
224768,539.824,-831.226,0,0
226070,520.405,-829.077,0,0
227371,503.978,-838.992,0,0
228673,478.812,-851.571,0,0
229974,451.535,-858.3,0,0
231276,423.059,-861.117,0,0
232578,396.596,-859.887,0,0
233879,371.518,-857.086,0,0
235180.95,348.009,-852.317,0,0
236482.575,323.32,-846.58,0,0
237784.2,298.515,-837.529,0,0
239085.825,275.193,-821.908,0,0
240387.45,258.717,-804.14,0,0
241689.075,245.432,-785.623,0,0
242990.7,237.913,-767.585,0,0
244292.325,234.107,-753.675,0,0
245593.95,229.074,-742.725,0,0
246895.575,224.122,-731.048,0,0
248197.2,220.413,-719.739,0,0
249498.825,219.601,-710.18,0,0
250800,216.768,-704.835,0,0
252102,209.63,-698.048,0,0
253404,202.287,-686.427,0,0
254705,198.153,-671.627,0,0
256007,199.537,-655.17,0,0
257309,207.135,-642.666,0,0
258610,214.397,-634.338,0,0
259912,226.546,-626.851,0,0
261213,241.626,-629.191,0,0
262515,249.535,-642.32,0,0
263817,246.189,-655.715,0,0
265118,235.15,-664.495,0,0
266420,221.049,-666.219,0,0
267721.55,207.759,-660.583,0,0
269023.175,200.083,-651.355,0,0
270324.8,195.271,-642.022,0,0
271626.425,194.437,-632.754,0,0
272928.05,194.769,-626.526,0,0
274229.675,195.18,-619.022,0,0
275531.3,199.389,-612.409,0,0
276832.925,206.701,-609.241,0,0
278134.55,213.508,-612.7,0,0
279436.175,215.548,-620.065,0,0
280737.8,211.95,-627.918,0,0
282039.425,204.027,-632.826,0,0
283341,194.529,-633.923,0,0
284643,184.924,-631.333,0,0
285944,176.979,-625.792,0,0
287246,171.829,-618.425,0,0
288548,170.249,-611.457,0,0
289849,170.054,-606.731,0,0
291151,169.743,-603.953,0,0
292452,167.572,-600.886,0,0
293754,167.185,-595.824,0,0
295056,169.808,-592.62,0,0
296357,172.798,-593.478,0,0
297659,172.97,-597.296,0,0
298960.525,169.289,-600.994,0,0
300262.15,163.613,-603.115,0,0
301563.775,156.705,-603.419,0,0
302865.4,149.709,-601.424,0,0
304167.025,143.402,-598.226,0,0
305468.65,137.933,-593.698,0,0
306770.275,134.06,-588.635,0,0
308071.9,131.676,-584.216,0,0
309373.525,129.281,-581.164,0,0
310675.15,126.09,-578.537,0,0
311976.775,121.81,-575.475,0,0
313278.4,117.223,-570.748,0,0
314580,113.75,-564.432,0,0
315882,112.868,-557.513,0,0
317183,113.795,-552.496,0,0
318485,114.515,-549.432,0,0
319787,114.328,-546.765,0,0
321088,114.28,-543.913,0,0
322390,115.214,-542.015,0,0
323691,115.478,-541.882,0,0
324993,113.988,-542.736,0,0
326295,110.649,-543.048,0,0
327596,106.286,-542.139,0,0
328898,101.94,-540.056,0,0
330200,97.8612,-537.237,0,0
331501.125,93.6546,-534.245,0,0
332802.75,89.3966,-530.558,0,0
334104.375,85.2558,-525.951,0,0
335406.0,81.6045,-520.51,0,0
336707.625,78.8352,-514.361,0,0
338009.25,77.0631,-508.171,0,0
339310.875,76.0514,-501.559,0,0
340612.5,76.5535,-494.901,0,0
341914.125,78.6831,-489.39,0,0
343215.75,81.3223,-485.841,0,0
344517.375,83.0238,-484.061,0,0
345819.0,83.1115,-482.392,0,0
347121,82.8253,-480.231,0,0
348422,81.9561,-477.701,0,0
349724,81.3489,-474.098,0,0
351025,82.4603,-470.513,0,0
352327,84.2612,-468.955,0,0
353629,84.1778,-468.704,0,0
354930,82.6699,-467.667,0,0
356232,80.8298,-465.575,0,0
357534,79.0132,-462.789,0,0
358835,77.9388,-459.159,0,0
360137,77.9287,-455.678,0,0
361438,77.8829,-452.905,0,0
362740.1,77.713,-449.867,0,0
364041.725,78.5888,-446.577,0,0
365343.35,80.185,-445.03,0,0
366644.975,80.3317,-444.957,0,0
367946.6,78.4731,-444.233,0,0
369248.225,75.9466,-441.438,0,0
370549.85,75.6245,-436.891,0,0
371851.475,77.3547,-434.522,0,0
373153.1,77.4464,-434.22,0,0
374454.725,75.6416,-432.879,0,0
375756.35,73.7536,-430.037,0,0
377057.975,73.0665,-426.332,0,0
378359.6,73.415,-422.945,0,0
379661,74.4008,-420.25,0,0
380963,75.1079,-418.7,0,0
382264,75.0845,-417.075,0,0
383566,75.1495,-415.681,0,0
384868,74.2565,-414.398,0,0
386169,73.0653,-412.47,0,0
387471,71.8119,-410.036,0,0
388773,70.4801,-406.845,0,0
390074,69.9474,-402.747,0,0
391376,70.7353,-398.504,0,0
392677,72.7393,-394.888,0,0
393979,75.2321,-392.627,0,0
395280.7,77.4421,-391.382,0,0
396582.325,79.342,-390.915,0,0
397883.95,80.4234,-391.269,0,0
399185.575,80.2774,-391.782,0,0
400006.6,79.7612,-391.898,0,0

File: sample_4.csv
Frequency (Hz),Impedance (ohms),Phase (Radians),Temperature (C),Humidity (%)
10000.0,263.68,-11830.8,0,0
11301.625,234.649,-10480.7,0,0
12603.25,213.264,-9403.03,0,0
13904.875,193.596,-8525.79,0,0
15206.5,180.945,-7803.66,0,0
16508.125,189.166,-7194.5,0,0
17809.75,156.763,-6685.09,0,0
19111.375,145.765,-6230.3,0,0
20413.0,140.634,-5831.61,0,0
21714.625,144.414,-5487.87,0,0
23016.25,125.281,-5188.28,0,0
24317.875,116.603,-4904.87,0,0
25619.5,112.739,-4652.72,0,0
26921.1,106.925,-4424.3,0,0
28222.7,120.105,-4222.44,0,0
29524.4,114.003,-4044.6,0,0
30826,99.3442,-3872.25,0,0
32127.6,100.02,-3712.75,0,0
33429.2,90.072,-3571.9,0,0
34730.9,85.2216,-3434.18,0,0
36032.5,81.9514,-3306.9,0,0
37334.1,79.9625,-3188.38,0,0
38635.7,77.539,-3077.18,0,0
39937.4,77.3234,-2972,0,0
41239,80.6231,-2877.62,0,0
42540.6,78.7657,-2790.71,0,0
43842.225,74.0654,-2706.7,0,0
45143.85,71.2723,-2626.04,0,0
46445.475,70.9547,-2549.04,0,0
47747.1,70.1788,-2479.58,0,0
49048.725,66.1532,-2410.52,0,0
50350.35,64.7391,-2343.57,0,0
51651.975,64.2437,-2279.25,0,0
52953.6,66.1419,-2216.64,0,0
54255.225,74.2513,-2160.24,0,0
55556.85,71.8274,-2117.26,0,0
56858.475,66.0687,-2063.56,0,0
58160.1,67.1391,-2011.15,0,0
59461.7,71.294,-1961.19,0,0
60763.3,81.3021,-1923.81,0,0
62065,70.5985,-1890.49,0,0
63366.6,64.7522,-1844.93,0,0
64668.2,65.1259,-1801.9,0,0
65969.8,67.1028,-1761.48,0,0
67271.5,70.8384,-1725.84,0,0
68573.1,73.9376,-1697.34,0,0
69874.7,66.1956,-1667.05,0,0
71176.3,64.9928,-1632.52,0,0
72478,59.4243,-1601.32,0,0
73779.6,58.1228,-1565.16,0,0
75081.2,60.2082,-1532.37,0,0
76382.825,62.3769,-1503.95,0,0
77684.45,65.4123,-1476.23,0,0
78986.075,63.7201,-1453.86,0,0
80287.7,60.7684,-1426.93,0,0
81589.325,60.1884,-1400.9,0,0
82890.95,58.9544,-1375.92,0,0
84192.575,57.8866,-1351.03,0,0
85494.2,57.1164,-1326.82,0,0
86795.825,56.4868,-1303.27,0,0
88097.45,55.0974,-1280.93,0,0
89399.075,53.5792,-1256.68,0,0
90700.7,53.4561,-1233.6,0,0
92002.3,53.8053,-1210.45,0,0
93303.9,54.9124,-1189.69,0,0
94605.6,53.5655,-1169.14,0,0
95907.2,53.3234,-1146.74,0,0
97208.8,54.1599,-1125.11,0,0
98510.4,55.5172,-1103.62,0,0
99812.1,58.2776,-1082.98,0,0
101114,62.7685,-1064.66,0,0
102415,61.7819,-1050.43,0,0
103717,59.1079,-1027.65,0,0
105019,63.0608,-1004.24,0,0
106320.175,69.8869,-983.971,0,0
107621.8,76.8771,-966.383,0,0
108923.425,85.4152,-950.28,0,0
110225.05,93.4928,-938.217,0,0
111526.675,99.4257,-928.092,0,0
112828.3,103.885,-918.709,0,0
114129.925,106.693,-910.149,0,0
115431.55,108.013,-902.072,0,0
116733.175,106.966,-893.571,0,0
118034.8,104.357,-882.44,0,0
119336.425,104.94,-867.829,0,0
120638.05,110.289,-862.731,0,0
121939.675,103.081,-855.805,0,0
123241,98.4925,-843.279,0,0
124543,95.3836,-830.513,0,0
125845,93.3161,-818.124,0,0
127146,89.71,-806.475,0,0
128448,85.2302,-794.189,0,0
129749,79.0967,-779.377,0,0
131051,74.8447,-761.48,0,0
132353,72.7736,-742.841,0,0
133654,72.3282,-724.116,0,0
134956,73.1344,-705.481,0,0
136258,75.2835,-687.206,0,0
137559,78.0944,-670.067,0,0
138860.775,80.0847,-652.236,0,0
140162.4,83.4745,-633.422,0,0
141464.025,88.4947,-614.558,0,0
142765.65,94.3666,-596.149,0,0
144067.275,101.248,-577.642,0,0
145368.9,109.293,-558.952,0,0
146670.525,119.183,-540.503,0,0
147972.15,130.207,-522.705,0,0
149273.775,142.96,-504.81,0,0
150575.4,158.138,-486.941,0,0
151877.025,177.202,-471.157,0,0
153178.65,199.76,-459.999,0,0
154480,220.635,-455.751,0,0
155782,237.562,-451.954,0,0
157084,251.564,-449.222,0,0
158385,267.459,-443.107,0,0
159687,288.702,-441.492,0,0
160988,306.249,-449.87,0,0
162290,312.623,-455.54,0,0
163592,317.721,-455.102,0,0
164893,327.118,-449.131,0,0
166195,343.602,-442.251,0,0
167497,370.509,-444.253,0,0
168798,395.196,-462.319,0,0
170100,410.11,-491.712,0,0
171401.375,402.871,-528.304,0,0
172703.0,376.599,-551.381,0,0
174004.625,344.176,-554.291,0,0
175306.25,317.566,-541.51,0,0
176607.875,301.431,-518.844,0,0
177909.5,296.528,-495.777,0,0
179211.125,296.426,-475.099,0,0
180512.75,300.131,-456.729,0,0
181814.375,304.151,-439.974,0,0
183116.0,307.493,-421.856,0,0
184417.625,313.197,-400.258,0,0
185719.25,323.067,-376.297,0,0
187021,337.774,-351.15,0,0
188322,358.326,-324.781,0,0
189624,386.201,-298.883,0,0
190926,422.661,-275.832,0,0
192227,467.119,-258.466,0,0
193529,517.687,-250.055,0,0
194831,571.537,-251.115,0,0
196132,627.123,-259.78,0,0
197434,688.113,-278.491,0,0
198735,751.837,-313.981,0,0
200037,810.023,-373.164,0,0
201339,846.435,-450.747,0,0
202640.35,855.946,-529.302,0,0
203941.975,851.705,-600.583,0,0
205243.6,832.415,-664.654,0,0
206545.225,808.51,-719.724,0,0
207846.85,774.544,-777.019,0,0
209148.475,723.528,-818.202,0,0
210450.1,672.703,-838.859,0,0
211751.725,627.726,-845.897,0,0
213053.35,592.911,-845.176,0,0
214354.975,568.009,-839.052,0,0
215656.6,556.131,-841.095,0,0
216958.225,538.684,-851.281,0,0
218259.85,518.967,-859.081,0,0
219561,499.475,-867.293,0,0
220863,476.783,-876.204,0,0
222165,451.679,-881.649,0,0
223466,426.797,-884.216,0,0
224768,402.276,-886.376,0,0
226070,374.287,-886.421,0,0
227371,345.08,-881.192,0,0
228673,316.621,-869.901,0,0
229974,293.074,-853.05,0,0
231276,275.42,-834.843,0,0
232578,261.916,-816.704,0,0
233879,252.01,-799.465,0,0
235180.95,245.186,-783.532,0,0
236482.575,239.458,-769.754,0,0
237784.2,235.402,-755.907,0,0
239085.825,234.128,-744.517,0,0
240387.45,232.89,-736.204,0,0
241689.075,230.418,-729.899,0,0
242990.7,226.227,-724.16,0,0
244292.325,220.72,-718.348,0,0
245593.95,214.045,-710.313,0,0
246895.575,208.803,-700.724,0,0
248197.2,205.792,-691.453,0,0
249498.825,202.73,-683.176,0,0
250800,199.965,-675.71,0,0
252102,194.637,-668.806,0,0
253404,187.788,-657.681,0,0
254705,183.443,-643.717,0,0
256007,181.531,-626.349,0,0
257309,185.442,-607.67,0,0
258610,195.14,-590.043,0,0
259912,210.541,-576.561,0,0
261213,229.55,-567.769,0,0
262515,249.83,-565.922,0,0
263817,271.034,-571.785,0,0
265118,287.522,-585.253,0,0
266420,298.452,-602.876,0,0
267721.55,302.805,-624.124,0,0
269023.175,296.33,-647.203,0,0
270324.8,280.944,-659.298,0,0
271626.425,270.76,-665.336,0,0
272928.05,261.012,-672.578,0,0
274229.675,249.093,-680.757,0,0
275531.3,231.185,-686.554,0,0
276832.925,210.791,-685.096,0,0
278134.55,192.019,-674.572,0,0
279436.175,182.749,-658.48,0,0
280737.8,181.31,-647.486,0,0
282039.425,178.923,-639.668,0,0
283341,179.574,-632.542,0,0
284643,178.924,-629.669,0,0
285944,175.593,-627.584,0,0
287246,169.47,-622.294,0,0
288548,165.061,-611.93,0,0
289849,168.509,-599.156,0,0
291151,178.671,-592.093,0,0
292452,190.599,-593.082,0,0
293754,198.523,-602.727,0,0
295056,197.973,-615.953,0,0
296357,188.61,-626.166,0,0
297659,176.647,-628.99,0,0
298960.525,166.978,-628.038,0,0
300262.15,158.346,-626.499,0,0
301563.775,149.736,-623.246,0,0
302865.4,142.433,-618.844,0,0
304167.025,135.788,-613.279,0,0
305468.65,130.935,-607.078,0,0
306770.275,127.516,-600.984,0,0
308071.9,125.599,-595.88,0,0
309373.525,123.86,-592.374,0,0
310675.15,120.659,-589.567,0,0
311976.775,117.095,-585.577,0,0
313278.4,114.215,-581.014,0,0
314580,112.299,-576.764,0,0
315882,110.792,-573.122,0,0
317183,109.373,-570.299,0,0
318485,107.461,-568.207,0,0
319787,104.984,-566.727,0,0
321088,100.934,-565.814,0,0
322390,94.5813,-563.707,0,0
323691,87.8963,-558.175,0,0
324993,83.5525,-550.957,0,0
326295,80.6598,-544.166,0,0
327596,78.4658,-537.453,0,0
328898,76.8972,-530.477,0,0
330200,76.9418,-523.237,0,0
331501.125,78.369,-517.503,0,0
332802.75,79.9743,-513.6,0,0
334104.375,80.0274,-511.053,0,0
335406.0,78.7372,-508.129,0,0
336707.625,76.6407,-503.873,0,0
338009.25,75.3746,-498.253,0,0
339310.875,75.0805,-492.057,0,0
340612.5,76.4415,-485.585,0,0
341914.125,79.8721,-479.934,0,0
343215.75,84.6133,-476.895,0,0
344517.375,88.1546,-476.616,0,0
345819.0,89.4803,-477.361,0,0
347121,89.0769,-477.899,0,0
348422,87.3241,-477.476,0,0
349724,85.1939,-475.906,0,0
351025,83.1894,-473.483,0,0
352327,81.1967,-470.173,0,0
353629,80.437,-466.079,0,0
354930,80.7884,-462.848,0,0
356232,80.8953,-460.305,0,0
357534,80.3316,-458.232,0,0
358835,79.0576,-455.502,0,0
360137,78.0761,-451.885,0,0
361438,77.736,-447.61,0,0
362740.1,78.7392,-443.68,0,0
364041.725,79.4391,-440.943,0,0
365343.35,79.4158,-437.785,0,0
366644.975,79.8631,-433.499,0,0
367946.6,81.6445,-429.138,0,0
369248.225,84.7344,-425.067,0,0
370549.85,88.9425,-422.027,0,0
371851.475,94.3273,-421.177,0,0
373153.1,98.979,-423.248,0,0
374454.725,100.576,-427.204,0,0
375756.35,99.3173,-429.567,0,0
377057.975,98.0178,-430.439,0,0
378359.6,96.9054,-430.978,0,0
379661,95.4693,-431.372,0,0
380963,93.5558,-431.211,0,0
382264,92.8057,-429.859,0,0
383566,93.2523,-430.891,0,0
384868,90.7423,-433.455,0,0
386169,85.8243,-434.139,0,0
387471,80.2964,-431.88,0,0
388773,76.9506,-427.316,0,0
390074,76.507,-423.113,0,0
391376,77.2486,-421.497,0,0
392677,75.8032,-422.09,0,0
393979,71.8372,-421.286,0,0
395280.7,67.7913,-418.435,0,0
396582.325,64.7061,-414.413,0,0
397883.95,62.3244,-410.138,0,0
399185.575,60.4524,-405.405,0,0
400006.6,59.6669,-402.271,0,0