Folder: ML_Dmg_Mehdi_Dataset/Accelerated corrosion test data/2025-10-09_06-00-03

Note: README.md
# ML_Dmg_Mehdi_Dataset

File: sample_1.csv
Frequency (Hz),Impedance (ohms),Phase (Radians),Temperature (C),Humidity (%)
10000.0,242.187,-12188.8,0,0
11301.625,215.695,-10796.3,0,0
12603.25,196.286,-9697.61,0,0
13904.875,183.398,-8775.19,0,0
15206.5,183.368,-8044.31,0,0
16508.125,156.808,-7419.59,0,0
17809.75,147.173,-6884.76,0,0
19111.375,136.325,-6416.53,0,0
20413.0,156.669,-5974.99,0,0
21714.625,139.074,-5660.41,0,0
23016.25,123.487,-5355.46,0,0
24317.875,112.827,-5063.28,0,0
25619.5,105.775,-4799.41,0,0
26921.1,114.753,-4551.84,0,0
28222.7,111.479,-4347.34,0,0
29524.4,107.551,-4181.07,0,0
30826,101.459,-3995,0,0
32127.6,98.9913,-3836.25,0,0
33429.2,88.9904,-3694.22,0,0
34730.9,82.1277,-3551.86,0,0
36032.5,78.2715,-3420.87,0,0
37334.1,75.749,-3298.87,0,0
38635.7,73.4419,-3185.42,0,0
39937.4,71.5921,-3078.77,0,0
41239,72.5155,-2979.96,0,0
42540.6,71.0416,-2887.86,0,0
43842.225,68.4044,-2801.01,0,0
45143.85,68.7513,-2719.76,0,0
46445.475,65.8246,-2643.3,0,0
47747.1,64.3462,-2569.69,0,0
49048.725,61.871,-2499.74,0,0
50350.35,60.0888,-2433.26,0,0
51651.975,59.1044,-2369.7,0,0
52953.6,58.1495,-2308.78,0,0
54255.225,57.1198,-2252.08,0,0
55556.85,56.325,-2196.63,0,0
56858.475,55.1998,-2143.63,0,0
58160.1,54.9899,-2093.15,0,0
59461.7,54.7968,-2045.18,0,0
60763.3,55.0031,-1999.23,0,0
62065,53.5439,-1955.42,0,0
63366.6,52.7576,-1911.93,0,0
64668.2,53.3569,-1869.81,0,0
65969.8,55.5204,-1831.98,0,0
67271.5,54.0058,-1795.41,0,0
68573.1,53.6691,-1760.13,0,0
69874.7,52.5325,-1726.13,0,0
71176.3,50.7641,-1691.61,0,0
72478,48.8833,-1657.92,0,0
73779.6,48.4579,-1624.5,0,0
75081.2,48.8738,-1592.38,0,0
76382.825,49.736,-1561.32,0,0
77684.45,50.488,-1532.08,0,0
78986.075,52.2164,-1504.4,0,0
80287.7,51.3336,-1478.14,0,0
81589.325,51.0434,-1450.22,0,0
82890.95,51.5109,-1423.42,0,0
84192.575,53.0837,-1397.2,0,0
85494.2,55.3586,-1372.8,0,0
86795.825,56.3232,-1349.5,0,0
88097.45,56.5918,-1326.33,0,0
89399.075,58.257,-1301.88,0,0
90700.7,61.875,-1278.22,0,0
92002.3,68.0743,-1257.36,0,0
93303.9,75.2167,-1240.42,0,0
94605.6,73.7933,-1233.22,0,0
95907.2,67.1779,-1214.81,0,0
97208.8,64.8155,-1194.23,0,0
98510.4,64.5793,-1173.89,0,0
99812.1,63.394,-1153.79,0,0
101114,63.8302,-1134.01,0,0
102415,63.3071,-1112.39,0,0
103717,68.3882,-1091.15,0,0
105019,75.1318,-1073.7,0,0
106320.175,81.6008,-1057.63,0,0
107621.8,88.1025,-1045.28,0,0
108923.425,92.5806,-1034.27,0,0
110225.05,94.0016,-1026.1,0,0
111526.675,94.5168,-1013.86,0,0
112828.3,96.3055,-1003.93,0,0
114129.925,95.5984,-996.255,0,0
115431.55,91.8692,-986.8,0,0
116733.175,86.9116,-974.445,0,0
118034.8,82.9261,-959.738,0,0
119336.425,81.4018,-944.104,0,0
120638.05,82.063,-930.152,0,0
121939.675,80.8449,-917.514,0,0
123241,79.3033,-903.173,0,0
124543,79.1288,-888.078,0,0
125845,79.9154,-873.489,0,0
127146,81.2591,-859.203,0,0
128448,83.0128,-844.81,0,0
129749,85.6145,-830.356,0,0
131051,90.6057,-817.297,0,0
132353,94.6632,-806.955,0,0
133654,97.6642,-796.333,0,0
134956,100.082,-785.978,0,0
136258,103.109,-774.836,0,0
137559,107.957,-765.13,0,0
138860.775,110.179,-759.047,0,0
140162.4,109.916,-750.79,0,0
141464.025,109.667,-740.37,0,0
142765.65,110.571,-729.453,0,0
144067.275,111.885,-718.341,0,0
145368.9,114.143,-707.046,0,0
146670.525,117.104,-696.528,0,0
147972.15,119.4,-687.465,0,0
149273.775,122.215,-677.462,0,0
150575.4,123.054,-669.322,0,0
151877.025,122.262,-657.693,0,0
153178.65,122.337,-642.813,0,0
154480,126.25,-626.549,0,0
155782,133.822,-609.903,0,0
157084,145.537,-595.023,0,0
158385,158.337,-585.693,0,0
159687,168.531,-574.983,0,0
160988,186.296,-564.743,0,0
162290,204.132,-565.15,0,0
163592,216.807,-566.258,0,0
164893,228.253,-568.753,0,0
166195,241.675,-575.286,0,0
167497,247.179,-587.674,0,0
168798,244.514,-598.859,0,0
170100,235.53,-604.3,0,0
171401.375,228.435,-602.335,0,0
172703.0,222.58,-598.181,0,0
174004.625,219.093,-592.393,0,0
175306.25,218.389,-586.145,0,0
176607.875,218.741,-583.313,0,0
177909.5,217.492,-580.071,0,0
179211.125,213.494,-577.95,0,0
180512.75,208.062,-574.583,0,0
181814.375,200.43,-567.153,0,0
183116.0,193.508,-557.765,0,0
184417.625,187.228,-543.071,0,0
185719.25,185.973,-526.122,0,0
187021,188.249,-510.752,0,0
188322,191.581,-496.321,0,0
189624,194.63,-481.386,0,0
190926,199.826,-465.743,0,0
192227,206.349,-449.178,0,0
193529,215.289,-433.16,0,0
194831,225.253,-416.635,0,0
196132,237.947,-399.09,0,0
197434,254.359,-381.228,0,0
198735,274.908,-365.301,0,0
200037,295.868,-351.304,0,0
201339,321.398,-334.453,0,0
202640.35,357.135,-319.956,0,0
203941.975,399.612,-313.563,0,0
205243.6,451.629,-321.614,0,0
206545.225,495.332,-349.271,0,0
207846.85,525.455,-388.713,0,0
209148.475,539.012,-428.773,0,0
210450.1,537.6,-463.845,0,0
211751.725,528.336,-483.672,0,0
213053.35,526.537,-488.243,0,0
214354.975,536.973,-497.45,0,0
215656.6,548.644,-511.291,0,0
216958.225,555.618,-527.369,0,0
218259.85,569.93,-541.165,0,0
219561,583.56,-559.898,0,0
220863,601.52,-584.352,0,0
222165,619.704,-621.19,0,0
223466,624.471,-669.744,0,0
224768,614.913,-718.342,0,0
226070,596.468,-764.65,0,0
227371,564.102,-808.673,0,0
228673,519.767,-840.678,0,0
229974,472.83,-856.123,0,0
231276,430.178,-859.254,0,0
232578,395.38,-855.295,0,0
233879,367.654,-850.638,0,0
235180.95,341.68,-845.73,0,0
236482.575,317.758,-839.893,0,0
237784.2,294.981,-832.048,0,0
239085.825,274.686,-823.809,0,0
240387.45,254.938,-813.379,0,0
241689.075,237.963,-801.934,0,0
242990.7,223.533,-789.979,0,0
244292.325,210.859,-778.571,0,0
245593.95,198.912,-767.395,0,0
246895.575,187.466,-755.961,0,0
248197.2,177.52,-743.341,0,0
249498.825,169.269,-731.01,0,0
250800,162.031,-718.951,0,0
252102,155.622,-706.746,0,0
253404,150.28,-694.491,0,0
254705,145.926,-681.521,0,0
256007,143.935,-669.265,0,0
257309,142.434,-657.653,0,0
258610,142.055,-645.77,0,0
259912,144.024,-634.151,0,0
261213,148.246,-624.544,0,0
262515,153.241,-617.377,0,0
263817,158.403,-611.948,0,0
265118,164.388,-608.512,0,0
266420,171.179,-609.114,0,0
267721.55,173.967,-615.426,0,0
269023.175,168.99,-621.963,0,0
270324.8,159.14,-623.119,0,0
271626.425,149.522,-618.398,0,0
272928.05,143.067,-610.165,0,0
274229.675,140.368,-601.304,0,0
275531.3,139.881,-593.534,0,0
276832.925,140.546,-586.799,0,0
278134.55,142.905,-581.748,0,0
279436.175,144.837,-578.876,0,0
280737.8,145.674,-577.546,0,0
282039.425,144.72,-577.158,0,0
283341,141.687,-575.446,0,0
284643,138.428,-572.199,0,0
285944,135.488,-568.347,0,0
287246,131.884,-563.197,0,0
288548,129.534,-555.327,0,0
289849,131.916,-547.782,0,0
291151,134.885,-543.976,0,0
292452,136.127,-541.668,0,0
293754,134.831,-538.862,0,0
295056,133.739,-532.397,0,0
296357,136.441,-525.296,0,0
297659,141.127,-520.167,0,0
298960.525,146.255,-516.712,0,0
300262.15,151.702,-514.803,0,0
301563.775,157.341,-513.214,0,0
302865.4,164.115,-513.968,0,0
304167.025,169.591,-517.537,0,0
305468.65,173.517,-521.864,0,0
306770.275,176.582,-527.251,0,0
308071.9,177.768,-534.207,0,0
309373.525,176.152,-540.879,0,0
310675.15,173.681,-546.708,0,0
311976.775,169.912,-553.251,0,0
313278.4,163.046,-558.865,0,0
314580,155.279,-561.675,0,0
315882,147.799,-562.926,0,0
317183,140.172,-563.512,0,0
318485,132.136,-562.739,0,0
319787,124.572,-560.591,0,0
321088,117.494,-557.046,0,0
322390,111.382,-552.621,0,0
323691,106.279,-547.07,0,0
324993,103.347,-541.428,0,0
326295,101.396,-536.812,0,0
327596,99.9487,-532.946,0,0
328898,98.8643,-530.06,0,0
330200,97.3389,-528.19,0,0
331501.125,94.9882,-526.636,0,0
332802.75,92.0322,-524.893,0,0
334104.375,88.6003,-522.752,0,0
335406.0,84.8064,-520.191,0,0
336707.625,81.1338,-516.903,0,0
338009.25,77.7786,-513.16,0,0
339310.875,74.7146,-509.253,0,0
340612.5,71.9387,-505.005,0,0
341914.125,69.7007,-500.764,0,0
343215.75,67.6077,-496.678,0,0
344517.375,65.5166,-492.684,0,0
345819.0,63.4572,-488.37,0,0
347121,61.6082,-483.884,0,0
348422,60.1056,-479.175,0,0
349724,59.1264,-474.534,0,0
351025,58.4688,-470.017,0,0
352327,58.0613,-465.763,0,0
353629,57.6541,-461.817,0,0
354930,57.1982,-457.783,0,0
356232,56.9709,-453.669,0,0
357534,57.1124,-449.63,0,0
358835,57.3108,-445.983,0,0
360137,57.5427,-442.371,0,0
361438,57.8947,-438.809,0,0
362740.1,58.0708,-435.381,0,0
364041.725,58.3915,-431.96,0,0
365343.35,58.7479,-428.547,0,0
366644.975,59.1623,-425.073,0,0
367946.6,59.4516,-421.519,0,0
369248.225,59.9471,-417.159,0,0
370549.85,61.8864,-412.485,0,0
371851.475,64.9611,-408.766,0,0
373153.1,68.376,-406.228,0,0
374454.725,71.7712,-404.723,0,0
375756.35,74.602,-404.313,0,0
377057.975,76.5583,-404.071,0,0
378359.6,78.3592,-403.988,0,0
379661,79.7488,-404.077,0,0
380963,81.3496,-404.101,0,0
382264,83.0165,-405.512,0,0
383566,83.0557,-407.83,0,0
384868,81.406,-409.792,0,0
386169,78.7532,-410.67,0,0
387471,75.5981,-410.434,0,0
388773,72.771,-408.825,0,0
390074,70.896,-406.637,0,0
391376,69.5982,-404.957,0,0
392677,68.005,-403.598,0,0
393979,65.8847,-402.042,0,0
395280.7,63.4735,-399.772,0,0
396582.325,61.394,-396.714,0,0
397883.95,59.9707,-393.399,0,0
399185.575,58.7717,-390.05,0,0
400006.6,58.1698,-387.873,0,0

File: sample_2.csv
Frequency (Hz),Impedance (ohms),Phase (Radians),Temperature (C),Humidity (%)
10000.0,234.111,-11396.5,0,0
11301.625,208.051,-10093.9,0,0
12603.25,187.295,-9061.82,0,0
13904.875,187.715,-8221.47,0,0
15206.5,166.048,-7529.96,0,0
16508.125,146.081,-6938.11,0,0
17809.75,135.513,-6431.35,0,0
19111.375,131.18,-5993.57,0,0
20413.0,120.337,-5611.65,0,0
21714.625,128.612,-5283.43,0,0
23016.25,114.102,-4988.18,0,0
24317.875,104.566,-4722.69,0,0
25619.5,98.827,-4480.23,0,0
26921.1,96.3114,-4262.34,0,0
28222.7,91.693,-4064.65,0,0
29524.4,94.9414,-3880.54,0,0
30826,89.0282,-3726.43,0,0
32127.6,83.3194,-3572.89,0,0
33429.2,80.9127,-3434.87,0,0
34730.9,76.9203,-3304.81,0,0
36032.5,74.0639,-3183.84,0,0
37334.1,72.1614,-3070.73,0,0
38635.7,69.9481,-2965.74,0,0
39937.4,67.9884,-2867.24,0,0
41239,66.5674,-2774.39,0,0
42540.6,65.5386,-2688.2,0,0
43842.225,64.0455,-2606.45,0,0
45143.85,62.8793,-2529,0,0
46445.475,62.2737,-2456.86,0,0
47747.1,61.3958,-2387.5,0,0
49048.725,61.5423,-2324,0,0
50350.35,58.6798,-2262.01,0,0
51651.975,57.4894,-2202.91,0,0
52953.6,55.9932,-2145.82,0,0
54255.225,55.0447,-2091.21,0,0
55556.85,54.717,-2039.37,0,0
56858.475,54.6089,-1989.87,0,0
58160.1,54.837,-1942.62,0,0
59461.7,55.1803,-1896.8,0,0
60763.3,56.9006,-1854.36,0,0
62065,59.5518,-1816.11,0,0
63366.6,56.4173,-1779.52,0,0
64668.2,53.7629,-1741.59,0,0
65969.8,51.2399,-1702.24,0,0
67271.5,51.8452,-1665.1,0,0
68573.1,53.9868,-1631.05,0,0
69874.7,56.6128,-1600.92,0,0
71176.3,53.2126,-1572.76,0,0
72478,48.5459,-1542.56,0,0
73779.6,45.7891,-1509.77,0,0
75081.2,45.8322,-1477.5,0,0
76382.825,47.441,-1447.16,0,0
77684.45,50.1321,-1418.95,0,0
78986.075,53.5735,-1394.6,0,0
80287.7,52.4413,-1373.29,0,0
81589.325,49.7943,-1348.36,0,0
82890.95,48.6456,-1322.63,0,0
84192.575,49.3802,-1297.85,0,0
85494.2,50.1045,-1274.43,0,0
86795.825,51.2119,-1252.49,0,0
88097.45,51.6594,-1231.35,0,0
89399.075,51.6449,-1209.94,0,0
90700.7,52.0462,-1189.69,0,0
92002.3,53.2654,-1168.68,0,0
93303.9,55.8662,-1149.86,0,0
94605.6,55.9163,-1133.08,0,0
95907.2,55.1503,-1113.5,0,0
97208.8,58.6555,-1096.74,0,0
98510.4,58.3688,-1082.87,0,0
99812.1,54.0118,-1068.78,0,0
101114,51.1269,-1051.1,0,0
102415,47.7799,-1030.95,0,0
103717,46.5628,-1010.08,0,0
105019,49.9236,-989.588,0,0
106320.175,54.8444,-972.717,0,0
107621.8,58.0677,-960.421,0,0
108923.425,56.7884,-948.548,0,0
110225.05,53.6369,-933.319,0,0
111526.675,52.4594,-915.757,0,0
112828.3,52.8882,-898.323,0,0
114129.925,54.5547,-881.259,0,0
115431.55,57.2598,-864.879,0,0
116733.175,60.7168,-849.588,0,0
118034.8,64.7194,-835.797,0,0
119336.425,68.2037,-823.752,0,0
120638.05,70.473,-813.487,0,0
121939.675,69.6635,-802.313,0,0
123241,68.6715,-789.287,0,0
124543,68.1158,-775.42,0,0
125845,68.3162,-760.446,0,0
127146,69.8727,-745.299,0,0
128448,72.7828,-731,0,0
129749,75.5297,-717.932,0,0
131051,77.952,-705.132,0,0
132353,79.5084,-692.817,0,0
133654,80.6404,-678.969,0,0
134956,82.1436,-664.743,0,0
136258,84.5581,-649.664,0,0
137559,87.7406,-634.531,0,0
138860.775,91.2249,-619.547,0,0
140162.4,94.7833,-603.456,0,0
141464.025,100.451,-585.089,0,0
142765.65,110.01,-567.443,0,0
144067.275,121.106,-552.769,0,0
145368.9,132.419,-538.382,0,0
146670.525,145.053,-524.756,0,0
147972.15,160.552,-511.313,0,0
149273.775,180.131,-499.155,0,0
150575.4,206.622,-495.696,0,0
151877.025,228.301,-507.141,0,0
153178.65,235.229,-521.484,0,0
154480,233.075,-531.869,0,0
155782,228.119,-534.238,0,0
157084,222.562,-532.903,0,0
158385,218.76,-525.315,0,0
159687,219.148,-518.137,0,0
160988,219.84,-511.916,0,0
162290,225.505,-506.559,0,0
163592,223.755,-511.686,0,0
164893,211.249,-508.317,0,0
166195,199.076,-495.789,0,0
167497,191.459,-475.298,0,0
168798,190.451,-452.607,0,0
170100,193.784,-431.77,0,0
171401.375,197.649,-409.337,0,0
172703.0,206.409,-385.878,0,0
174004.625,219.28,-360.985,0,0
175306.25,239.49,-336.665,0,0
176607.875,264.904,-320.468,0,0
177909.5,292.83,-309.252,0,0
179211.125,314.661,-311.084,0,0
180512.75,324.083,-308.073,0,0
181814.375,330.261,-292.264,0,0
183116.0,348.271,-270.6,0,0
184417.625,373.489,-247.093,0,0
185719.25,411.546,-226.979,0,0
187021,452.471,-219.221,0,0
188322,496.085,-213.283,0,0
189624,537.02,-214.355,0,0
190926,582.457,-212.428,0,0
192227,641.582,-214.478,0,0
193529,712.585,-235.172,0,0
194831,777.898,-282.376,0,0
196132,829.124,-345.543,0,0
197434,865.112,-412.559,0,0
198735,893.486,-491.963,0,0
200037,899.532,-575.266,0,0
201339,888.625,-663.365,0,0
202640.35,851.812,-744.195,0,0
203941.975,795.627,-804.424,0,0
205243.6,741.647,-845.492,0,0
206545.225,679.772,-872.323,0,0
207846.85,627.848,-879.987,0,0
209148.475,589.388,-883.986,0,0
210450.1,549.847,-894.895,0,0
211751.725,503.889,-895.875,0,0
213053.35,465.764,-884.656,0,0
214354.975,434.279,-870.41,0,0
215656.6,410.061,-854.848,0,0
216958.225,390.569,-838.326,0,0
218259.85,376.992,-821.993,0,0
219561,367.947,-807.998,0,0
220863,361.745,-796.787,0,0
222165,358.317,-786.819,0,0
223466,357.684,-782.201,0,0
224768,354.51,-781.382,0,0
226070,349.944,-779.767,0,0
227371,348.029,-779.506,0,0
228673,346.687,-784.526,0,0
229974,339.722,-794.55,0,0
231276,326.18,-802.854,0,0
232578,309.951,-807.261,0,0
233879,292.765,-808.54,0,0
235180.95,275.913,-807.2,0,0
236482.575,259.257,-804.258,0,0
237784.2,242.288,-799.306,0,0
239085.825,226.604,-791.785,0,0
240387.45,212.297,-782.265,0,0
241689.075,200.727,-772.258,0,0
242990.7,190.867,-762.058,0,0
244292.325,182.315,-753.387,0,0
245593.95,173.61,-745.839,0,0
246895.575,162.793,-739.187,0,0
248197.2,149.789,-728.491,0,0
249498.825,139.065,-714.858,0,0
250800,130.339,-699.612,0,0
252102,124.7,-682.746,0,0
253404,122.244,-666.672,0,0
254705,121.235,-651.37,0,0
256007,122.062,-635.587,0,0
257309,126.192,-621.09,0,0
258610,131.768,-608.556,0,0
259912,139.166,-597.404,0,0
261213,148.076,-588.897,0,0
262515,157.47,-583.47,0,0
263817,166.558,-580.57,0,0
265118,174.614,-580.878,0,0
266420,179.21,-582.671,0,0
267721.55,182.685,-583.682,0,0
269023.175,184.252,-585.248,0,0
270324.8,184.528,-584.161,0,0
271626.425,187.318,-581.021,0,0
272928.05,193.177,-578.8,0,0
274229.675,202.809,-579.336,0,0
275531.3,214.369,-588.339,0,0
276832.925,217.947,-606.516,0,0
278134.55,209.359,-622.591,0,0
279436.175,196.813,-631.92,0,0
280737.8,183.012,-636.486,0,0
282039.425,170.049,-638.233,0,0
283341,154.867,-636.606,0,0
284643,143.802,-630.293,0,0
285944,131.913,-625.457,0,0
287246,119.174,-614.241,0,0
288548,112.052,-597.504,0,0
289849,114.131,-578.574,0,0
291151,125.889,-566.171,0,0
292452,140.385,-565.031,0,0
293754,146.499,-573.879,0,0
295056,143.502,-577.789,0,0
296357,145.66,-577.89,0,0
297659,146.038,-587.211,0,0
298960.525,137.383,-593.269,0,0
300262.15,127.973,-594.578,0,0
301563.775,119.242,-591.538,0,0
302865.4,115.321,-587.663,0,0
304167.025,111.7,-587.718,0,0
305468.65,104.448,-588.183,0,0
306770.275,95.5567,-585.635,0,0
308071.9,87.6634,-580.34,0,0
309373.525,81.6598,-574.202,0,0
310675.15,76.5622,-568.163,0,0
311976.775,72.0505,-561.606,0,0
313278.4,68.6395,-554.914,0,0
314580,65.9353,-548.731,0,0
315882,63.3035,-542.579,0,0
317183,61.2836,-536.093,0,0
318485,60.0822,-529.908,0,0
319787,59.0824,-524.229,0,0
321088,58.1518,-518.743,0,0
322390,57.2941,-513.284,0,0
323691,56.5979,-507.59,0,0
324993,56.576,-501.19,0,0
326295,58.5603,-494.755,0,0
327596,61.8458,-490.846,0,0
328898,64.0674,-488.571,0,0
330200,65.7449,-486.856,0,0
331501.125,66.69,-486.089,0,0
332802.75,66.0085,-485.982,0,0
334104.375,63.5808,-484.848,0,0
335406.0,61.1122,-482.106,0,0
336707.625,59.1493,-478.795,0,0
338009.25,57.4569,-475.086,0,0
339310.875,56.0868,-471.04,0,0
340612.5,55.1358,-466.809,0,0
341914.125,54.6841,-462.555,0,0
343215.75,54.3954,-458.238,0,0
344517.375,54.5943,-453.903,0,0
345819.0,55.3152,-449.713,0,0
347121,56.4688,-445.863,0,0
348422,57.8651,-442.384,0,0
349724,59.4368,-439.306,0,0
351025,61.0674,-436.814,0,0
352327,62.4473,-434.827,0,0
353629,63.5568,-432.676,0,0
354930,64.7245,-430.734,0,0
356232,65.9676,-428.8,0,0
357534,67.5493,-427.088,0,0
358835,69.2951,-425.972,0,0
360137,70.7099,-425.844,0,0
361438,71.3443,-426.031,0,0
362740.1,71.2216,-426.246,0,0
364041.725,70.5012,-426.172,0,0
365343.35,69.5173,-425.733,0,0
366644.975,68.2006,-424.698,0,0
367946.6,67.2651,-423.125,0,0
369248.225,67.1192,-421.697,0,0
370549.85,66.8272,-421.267,0,0
371851.475,65.4873,-420.771,0,0
373153.1,64.1952,-419.49,0,0
374454.725,63.1961,-418.482,0,0
375756.35,61.6411,-417.617,0,0
377057.975,59.8954,-416.186,0,0
378359.6,58.3555,-414.916,0,0
379661,55.7524,-413.645,0,0
380963,53.3732,-410.132,0,0
382264,53.2237,-407.446,0,0
383566,52.04,-406.131,0,0
384868,50.0035,-404.142,0,0
386169,47.9623,-401.333,0,0
387471,46.393,-398.054,0,0
388773,45.3851,-394.562,0,0
390074,44.9635,-391.083,0,0
391376,45.132,-388.32,0,0
392677,44.5882,-386.444,0,0
393979,43.0677,-384.103,0,0
395280.7,41.4743,-380.652,0,0
396582.325,40.6938,-376.576,0,0
397883.95,40.6644,-372.517,0,0
399185.575,41.1339,-368.808,0,0
400006.6,41.6043,-366.622,0,0