Folder: ML_Dmg_Mehdi_Dataset/Accelerated corrosion test data/2025-10-07_06-00-03

Note: README.md
# ML_Dmg_Mehdi_Dataset

File: sample_1.csv
Frequency (Hz),Impedance (ohms),Phase (Radians),Temperature (C),Humidity (%)
10000.0,239.743,-12187.6,0,0
11301.625,213.584,-10794.6,0,0
12603.25,194.278,-9695.99,0,0
13904.875,181.101,-8773.59,0,0
15206.5,181.686,-8043.2,0,0
16508.125,155.063,-7418.06,0,0
17809.75,146.526,-6884.08,0,0
19111.375,135.769,-6415.38,0,0
20413.0,154.408,-5974.11,0,0
21714.625,138.85,-5660.75,0,0
23016.25,122.467,-5354.09,0,0
24317.875,112.389,-5062.74,0,0
25619.5,104.822,-4798.22,0,0
26921.1,113.51,-4550.69,0,0
28222.7,110.572,-4346.31,0,0
29524.4,107.037,-4180.39,0,0
30826,100.801,-3994,0,0
32127.6,98.1376,-3835.2,0,0
33429.2,88.9291,-3692.76,0,0
34730.9,81.843,-3550.43,0,0
36032.5,77.7041,-3419.98,0,0
37334.1,74.9305,-3297.98,0,0
38635.7,72.7429,-3184.27,0,0
39937.4,70.8767,-3077.81,0,0
41239,72.1768,-2978.77,0,0
42540.6,70.3551,-2886.92,0,0
43842.225,67.7819,-2800.05,0,0
45143.85,68.4607,-2718.91,0,0
46445.475,65.6499,-2642.63,0,0
47747.1,63.7703,-2569.28,0,0
49048.725,61.2638,-2498.98,0,0
50350.35,59.755,-2432.45,0,0
51651.975,58.6735,-2368.92,0,0
52953.6,57.6926,-2307.96,0,0
54255.225,56.723,-2251.08,0,0
55556.85,55.9612,-2195.88,0,0
56858.475,54.8012,-2143.02,0,0
58160.1,54.6624,-2092.36,0,0
59461.7,54.4444,-2044.39,0,0
60763.3,54.473,-1998.47,0,0
62065,53.141,-1954.71,0,0
63366.6,52.5293,-1911.21,0,0
64668.2,52.9335,-1869.21,0,0
65969.8,55.1658,-1831.47,0,0
67271.5,53.5799,-1794.9,0,0
68573.1,53.2771,-1759.36,0,0
69874.7,52.1555,-1725.63,0,0
71176.3,50.4003,-1690.98,0,0
72478,48.5367,-1657.4,0,0
73779.6,48.1278,-1623.92,0,0
75081.2,48.5356,-1591.83,0,0
76382.825,49.3115,-1560.72,0,0
77684.45,50.1757,-1531.44,0,0
78986.075,51.9348,-1503.78,0,0
80287.7,51.1897,-1477.46,0,0
81589.325,50.7828,-1449.64,0,0
82890.95,51.2565,-1422.86,0,0
84192.575,52.7746,-1396.68,0,0
85494.2,55.064,-1372.25,0,0
86795.825,56.0565,-1348.91,0,0
88097.45,56.4248,-1325.88,0,0
89399.075,57.8168,-1301.41,0,0
90700.7,61.6,-1277.94,0,0
92002.3,67.9338,-1256.86,0,0
93303.9,74.9314,-1240.13,0,0
94605.6,73.4081,-1232.75,0,0
95907.2,67.0889,-1214.35,0,0
97208.8,64.649,-1193.83,0,0
98510.4,64.2849,-1173.53,0,0
99812.1,63.0679,-1153.3,0,0
101114,63.5499,-1133.52,0,0
102415,63.0112,-1111.98,0,0
103717,68.0472,-1090.76,0,0
105019,74.7164,-1073.13,0,0
106320.175,81.216,-1057.07,0,0
107621.8,87.8291,-1044.63,0,0
108923.425,92.4267,-1033.76,0,0
110225.05,93.7606,-1025.54,0,0
111526.675,94.3555,-1013.25,0,0
112828.3,96.2242,-1003.63,0,0
114129.925,95.4513,-995.964,0,0
115431.55,91.4666,-986.443,0,0
116733.175,86.4235,-973.961,0,0
118034.8,82.5391,-959.214,0,0
119336.425,81.1166,-943.628,0,0
120638.05,81.8786,-929.785,0,0
121939.675,80.6592,-917.082,0,0
123241,79.1045,-902.791,0,0
124543,78.8337,-887.766,0,0
125845,79.5133,-873.112,0,0
127146,80.6692,-858.747,0,0
128448,82.588,-844.131,0,0
129749,85.3934,-829.7,0,0
131051,90.5381,-816.769,0,0
132353,94.6489,-806.272,0,0
133654,97.7481,-795.929,0,0
134956,99.9641,-785.56,0,0
136258,103.204,-774.475,0,0
137559,107.854,-764.689,0,0
138860.775,110.224,-758.986,0,0
140162.4,109.72,-750.714,0,0
141464.025,109.52,-740.169,0,0
142765.65,110.368,-729.265,0,0
144067.275,111.625,-718.291,0,0
145368.9,113.9,-707.048,0,0
146670.525,116.79,-696.275,0,0
147972.15,119.262,-686.963,0,0
149273.775,121.82,-677.607,0,0
150575.4,122.649,-668.907,0,0
151877.025,121.711,-657.415,0,0
153178.65,122.042,-642.462,0,0
154480,125.812,-626.294,0,0
155782,133.349,-609.657,0,0
157084,145.146,-594.686,0,0
158385,157.725,-585.373,0,0
159687,168.227,-574.78,0,0
160988,185.605,-564.589,0,0
162290,202.809,-564.279,0,0
163592,216.341,-564.958,0,0
164893,228.434,-567.49,0,0
166195,241.876,-574.689,0,0
167497,247.101,-587.631,0,0
168798,244.038,-598.317,0,0
170100,235.836,-603.432,0,0
171401.375,228.649,-602.075,0,0
172703.0,222.508,-598.513,0,0
174004.625,218.432,-591.947,0,0
175306.25,218.554,-585.403,0,0
176607.875,219.055,-583.02,0,0
177909.5,217.093,-580.509,0,0
179211.125,213.358,-577.659,0,0
180512.75,207.589,-575.094,0,0
181814.375,199.598,-566.614,0,0
183116.0,192.979,-556.762,0,0
184417.625,187.353,-542.014,0,0
185719.25,186.538,-525.957,0,0
187021,188.171,-511.025,0,0
188322,190.751,-496.594,0,0
189624,193.927,-480.704,0,0
190926,199.726,-465.001,0,0
192227,206.507,-448.905,0,0
193529,214.975,-433.09,0,0
194831,224.858,-416.388,0,0
196132,237.573,-398.768,0,0
197434,253.966,-380.595,0,0
198735,274.74,-365.118,0,0
200037,295.324,-350.766,0,0
201339,321.413,-333.353,0,0
202640.35,357.295,-319.686,0,0
203941.975,399.836,-313.341,0,0
205243.6,451.683,-321.403,0,0
206545.225,495.357,-349.677,0,0
207846.85,524.349,-388.886,0,0
209148.475,538.384,-428.476,0,0
210450.1,536.381,-462.929,0,0
211751.725,527.533,-482.669,0,0
213053.35,527.093,-487.356,0,0
214354.975,536.492,-497.581,0,0
215656.6,546.962,-510.901,0,0
216958.225,554.258,-524.763,0,0
218259.85,570.798,-538.333,0,0
219561,585.111,-558.41,0,0
220863,603.168,-583.356,0,0
222165,620.504,-621.364,0,0
223466,624.497,-668.762,0,0
224768,616.822,-716.709,0,0
226070,598.988,-765.478,0,0
227371,565.25,-809.754,0,0
228673,520.348,-841.53,0,0
229974,473.23,-857.081,0,0
231276,430.121,-860.268,0,0
232578,395.239,-855.886,0,0
233879,367.133,-851.482,0,0
235180.95,341.025,-845.428,0,0
236482.575,317.73,-839.951,0,0
237784.2,295.373,-832.79,0,0
239085.825,274.155,-824.824,0,0
240387.45,253.61,-813.937,0,0
241689.075,237.183,-801.857,0,0
242990.7,222.594,-789.823,0,0
244292.325,210.293,-778.154,0,0
245593.95,198.461,-767.072,0,0
246895.575,187.051,-755.683,0,0
248197.2,177.155,-743.076,0,0
249498.825,168.965,-730.82,0,0
250800,161.746,-718.679,0,0
252102,155.218,-706.638,0,0
253404,149.823,-694.127,0,0
254705,145.739,-681.208,0,0
256007,143.694,-668.906,0,0
257309,142.229,-657.362,0,0
258610,141.897,-645.414,0,0
259912,144.144,-633.954,0,0
261213,148.139,-624.544,0,0
262515,152.834,-617.443,0,0
263817,158.018,-611.495,0,0
265118,164.588,-608.312,0,0
266420,171.02,-609.573,0,0
267721.55,173.398,-615.598,0,0
269023.175,168.296,-621.959,0,0
270324.8,158.202,-622.974,0,0
271626.425,148.67,-617.731,0,0
272928.05,142.77,-609.288,0,0
274229.675,140.3,-600.618,0,0
275531.3,139.752,-592.974,0,0
276832.925,140.663,-586.014,0,0
278134.55,143.244,-581.452,0,0
279436.175,145.182,-578.781,0,0
280737.8,145.695,-577.805,0,0
282039.425,144.369,-576.991,0,0
283341,141.563,-575.253,0,0
284643,138.668,-572.144,0,0
285944,135.367,-568.641,0,0
287246,131.633,-563.513,0,0
288548,129.164,-555.527,0,0
289849,131.196,-547.756,0,0
291151,134.591,-543.852,0,0
292452,135.258,-541.791,0,0
293754,133.913,-538.191,0,0
295056,133.512,-531.545,0,0
296357,136.455,-524.641,0,0
297659,141.145,-519.995,0,0
298960.525,146.229,-516.319,0,0
300262.15,151.729,-514.537,0,0
301563.775,157.063,-513.247,0,0
302865.4,163.805,-513.765,0,0
304167.025,169.479,-517.162,0,0
305468.65,173.234,-521.718,0,0
306770.275,176.478,-527.069,0,0
308071.9,177.486,-534.064,0,0
309373.525,176.024,-540.76,0,0
310675.15,173.588,-546.736,0,0
311976.775,169.451,-553.435,0,0
313278.4,162.443,-558.569,0,0
314580,154.927,-561.283,0,0
315882,147.771,-562.634,0,0
317183,139.986,-563.587,0,0
318485,131.888,-562.556,0,0
319787,124.361,-560.404,0,0
321088,117.227,-556.923,0,0
322390,111.002,-552.454,0,0
323691,105.851,-546.819,0,0
324993,102.894,-541.124,0,0
326295,100.936,-536.426,0,0
327596,99.6314,-532.455,0,0
328898,98.5693,-529.642,0,0
330200,97.07,-527.732,0,0
331501.125,94.8572,-526.121,0,0
332802.75,92.0141,-524.563,0,0
334104.375,88.3847,-522.551,0,0
335406.0,84.6231,-519.921,0,0
336707.625,80.873,-516.653,0,0
338009.25,77.4818,-512.903,0,0
339310.875,74.4534,-508.899,0,0
340612.5,71.6703,-504.716,0,0
341914.125,69.4338,-500.422,0,0
343215.75,67.3948,-496.351,0,0
344517.375,65.2864,-492.298,0,0
345819.0,63.2539,-488.029,0,0
347121,61.5042,-483.563,0,0
348422,60.0134,-478.955,0,0
349724,58.958,-474.247,0,0
351025,58.3309,-469.65,0,0
352327,57.9828,-465.43,0,0
353629,57.4901,-461.463,0,0
354930,57.0877,-457.414,0,0
356232,56.9212,-453.219,0,0
357534,57.1064,-449.323,0,0
358835,57.3476,-445.728,0,0
360137,57.4072,-442.078,0,0
361438,57.798,-438.518,0,0
362740.1,58.0307,-435.163,0,0
364041.725,58.3313,-431.794,0,0
365343.35,58.6473,-428.378,0,0
366644.975,59.0303,-424.975,0,0
367946.6,59.2615,-421.239,0,0
369248.225,59.9168,-416.749,0,0
370549.85,61.9375,-412.14,0,0
371851.475,65.0228,-408.516,0,0
373153.1,68.482,-406.055,0,0
374454.725,71.8672,-404.777,0,0
375756.35,74.523,-404.401,0,0
377057.975,76.3313,-404.108,0,0
378359.6,78.1442,-403.8,0,0
379661,79.6823,-403.881,0,0
380963,81.1717,-404.092,0,0
382264,82.7152,-405.456,0,0
383566,82.6973,-407.75,0,0
384868,81.0123,-409.589,0,0
386169,78.5174,-410.339,0,0
387471,75.4627,-410.197,0,0
388773,72.584,-408.603,0,0
390074,70.7188,-406.502,0,0
391376,69.3467,-404.685,0,0
392677,67.9038,-403.296,0,0
393979,65.7865,-401.844,0,0
395280.7,63.3537,-399.593,0,0
396582.325,61.287,-396.572,0,0
397883.95,59.7495,-393.255,0,0
399185.575,58.5605,-389.868,0,0
400006.6,57.9428,-387.632,0,0

File: sample_2.csv
Frequency (Hz),Impedance (ohms),Phase (Radians),Temperature (C),Humidity (%)
10000.0,230.782,-11399.6,0,0
11301.625,205.331,-10096.3,0,0
12603.25,184.487,-9064.71,0,0
13904.875,186.603,-8219.54,0,0
15206.5,167.747,-7529.56,0,0
16508.125,144.047,-6939.54,0,0
17809.75,133.381,-6433.02,0,0
19111.375,129.396,-5994.53,0,0
20413.0,118.913,-5612.65,0,0
21714.625,128.332,-5283.32,0,0
23016.25,112.709,-4988.73,0,0
24317.875,103.674,-4723.7,0,0
25619.5,97.6389,-4481.13,0,0
26921.1,95.2414,-4263.14,0,0
28222.7,90.6496,-4064.12,0,0
29524.4,93.5059,-3881.22,0,0
30826,88.0337,-3727.23,0,0
32127.6,82.2287,-3573.79,0,0
33429.2,80.1999,-3435.39,0,0
34730.9,75.9318,-3304.91,0,0
36032.5,73.3961,-3184.08,0,0
37334.1,71.3106,-3070.87,0,0
38635.7,68.7761,-2965.93,0,0
39937.4,67.2293,-2867.3,0,0
41239,65.7015,-2774.79,0,0
42540.6,64.5858,-2688.52,0,0
43842.225,63.2128,-2606.62,0,0
45143.85,61.8503,-2529.1,0,0
46445.475,61.4567,-2457.12,0,0
47747.1,60.7667,-2387.8,0,0
49048.725,60.7864,-2323.77,0,0
50350.35,58.0157,-2262.15,0,0
51651.975,56.7882,-2203,0,0
52953.6,55.233,-2146.03,0,0
54255.225,54.5348,-2091.49,0,0
55556.85,54.0981,-2039.55,0,0
56858.475,53.9759,-1989.94,0,0
58160.1,54.2008,-1942.69,0,0
59461.7,54.7174,-1896.9,0,0
60763.3,56.2446,-1854.61,0,0
62065,58.8309,-1816.17,0,0
63366.6,55.9257,-1779.73,0,0
64668.2,53.0627,-1741.33,0,0
65969.8,50.673,-1702.52,0,0
67271.5,51.4729,-1665.24,0,0
68573.1,53.6141,-1631.43,0,0
69874.7,56.0741,-1600.99,0,0
71176.3,52.7366,-1572.86,0,0
72478,48.0934,-1542.5,0,0
73779.6,45.3151,-1509.87,0,0
75081.2,45.3686,-1477.66,0,0
76382.825,47.0286,-1447.25,0,0
77684.45,49.6763,-1419.13,0,0
78986.075,53.078,-1394.74,0,0
80287.7,51.9912,-1373.44,0,0
81589.325,49.3693,-1348.45,0,0
82890.95,48.1916,-1322.77,0,0
84192.575,48.9203,-1298.04,0,0
85494.2,49.7199,-1274.64,0,0
86795.825,50.7114,-1252.66,0,0
88097.45,51.2271,-1231.58,0,0
89399.075,51.2808,-1210.1,0,0
90700.7,51.6464,-1189.9,0,0
92002.3,53.0225,-1168.74,0,0
93303.9,55.7697,-1149.9,0,0
94605.6,55.3101,-1133.44,0,0
95907.2,54.6488,-1114.04,0,0
97208.8,57.8148,-1096.96,0,0
98510.4,57.8138,-1083.26,0,0
99812.1,53.6536,-1069.15,0,0
101114,50.6251,-1050.86,0,0
102415,47.2525,-1030.82,0,0
103717,46.2862,-1010.22,0,0
105019,49.718,-989.657,0,0
106320.175,54.5582,-972.86,0,0
107621.8,57.7907,-960.718,0,0
108923.425,56.4931,-948.773,0,0
110225.05,53.2043,-933.524,0,0
111526.675,52.1802,-915.898,0,0
112828.3,52.5106,-898.597,0,0
114129.925,54.1986,-881.477,0,0
115431.55,56.8809,-865.186,0,0
116733.175,60.2526,-849.815,0,0
118034.8,64.2421,-835.942,0,0
119336.425,67.8757,-823.881,0,0
120638.05,70.2041,-813.665,0,0
121939.675,69.3977,-802.489,0,0
123241,68.5861,-789.604,0,0
124543,68.03,-776.026,0,0
125845,67.9959,-761.206,0,0
127146,69.3843,-746.069,0,0
128448,72.1594,-731.503,0,0
129749,74.9941,-718.32,0,0
131051,77.4272,-705.566,0,0
132353,79.1043,-693.235,0,0
133654,80.2106,-679.558,0,0
134956,81.6948,-665.349,0,0
136258,84.0654,-650.5,0,0
137559,87.1694,-635.39,0,0
138860.775,90.3286,-620.61,0,0
140162.4,93.5849,-604.477,0,0
141464.025,99.0573,-585.99,0,0
142765.65,108.288,-567.999,0,0
144067.275,119.385,-552.988,0,0
145368.9,130.553,-538.266,0,0
146670.525,143.155,-524.313,0,0
147972.15,158.681,-510.12,0,0
149273.775,178.673,-497.381,0,0
150575.4,205.848,-493.67,0,0
151877.025,228.388,-504.384,0,0
153178.65,236.614,-519.976,0,0
154480,234.988,-530.343,0,0
155782,230.191,-533.573,0,0
157084,225.269,-532.702,0,0
158385,221.614,-526.245,0,0
159687,220.816,-519.944,0,0
160988,221.802,-513.379,0,0
162290,227.948,-508.393,0,0
163592,226.245,-514.238,0,0
164893,212.988,-512.603,0,0
166195,199.569,-499.985,0,0
167497,191.851,-479.679,0,0
168798,189.592,-457.133,0,0
170100,192.277,-436.083,0,0
171401.375,196.075,-413.598,0,0
172703.0,204.71,-389.604,0,0
174004.625,217.338,-364.954,0,0
175306.25,236.962,-340.836,0,0
176607.875,261.906,-323.78,0,0
177909.5,290.551,-312.467,0,0
179211.125,311.004,-314.641,0,0
180512.75,321.329,-311.578,0,0
181814.375,326.612,-296.41,0,0
183116.0,342.834,-274.013,0,0
184417.625,368.842,-250.016,0,0
185719.25,405.924,-230.155,0,0
187021,446.954,-221.992,0,0
188322,489.838,-215.822,0,0
189624,530.38,-215.798,0,0
190926,575.239,-214.063,0,0
192227,633.742,-215.518,0,0
193529,704.257,-236.014,0,0
194831,767.046,-282.069,0,0
196132,818.565,-342.717,0,0
197434,856.244,-409.087,0,0
198735,883.07,-485.71,0,0
200037,888.969,-567.542,0,0
201339,881.82,-652.973,0,0
202640.35,846.799,-734.49,0,0
203941.975,792.615,-793.182,0,0
205243.6,740.565,-833.731,0,0
206545.225,680.916,-861.404,0,0
207846.85,631.022,-871.686,0,0
209148.475,592.346,-876.851,0,0
210450.1,553.754,-888.695,0,0
211751.725,508.251,-890.596,0,0
213053.35,469.719,-880.969,0,0
214354.975,437.763,-866.844,0,0
215656.6,413.915,-851.905,0,0
216958.225,394.303,-836.136,0,0
218259.85,380.417,-820.457,0,0
219561,370.937,-806.862,0,0
220863,364.121,-796.33,0,0
222165,359.965,-785.998,0,0
223466,359.413,-780.741,0,0
224768,357.165,-780.073,0,0
226070,352.367,-779.549,0,0
227371,350.2,-779.526,0,0
228673,348.432,-784.742,0,0
229974,341.389,-794.898,0,0
231276,327.658,-803.429,0,0
232578,311.08,-807.872,0,0
233879,293.486,-809.216,0,0
235180.95,276.528,-807.913,0,0
236482.575,259.286,-805.093,0,0
237784.2,242.015,-799.834,0,0
239085.825,226.111,-791.691,0,0
240387.45,212.238,-782.063,0,0
241689.075,200.655,-771.856,0,0
242990.7,190.985,-761.732,0,0
244292.325,182.62,-753.222,0,0
245593.95,173.997,-745.926,0,0
246895.575,162.926,-739.501,0,0
248197.2,149.588,-728.765,0,0
249498.825,138.67,-715.015,0,0
250800,129.991,-699.471,0,0
252102,124.446,-682.788,0,0
253404,121.877,-666.364,0,0
254705,121.099,-651.094,0,0
256007,121.982,-635.416,0,0
257309,126.248,-620.949,0,0
258610,132.004,-608.738,0,0
259912,138.927,-597.902,0,0
261213,147.811,-589.301,0,0
262515,157.197,-584.13,0,0
263817,165.996,-581.427,0,0
265118,173.638,-582.173,0,0
266420,177.354,-583.843,0,0
267721.55,180.435,-584.434,0,0
269023.175,181.258,-585.632,0,0
270324.8,181.036,-583.577,0,0
271626.425,183.782,-579.057,0,0
272928.05,190.153,-576.078,0,0
274229.675,200.667,-575.726,0,0
275531.3,213.08,-584.291,0,0
276832.925,217.962,-602.226,0,0
278134.55,210.448,-618.736,0,0
279436.175,198.488,-628.909,0,0
280737.8,185.311,-634.149,0,0
282039.425,172.182,-636.807,0,0
283341,156.827,-635.703,0,0
284643,145.438,-629.733,0,0
285944,133.602,-625.363,0,0
287246,120.004,-614.651,0,0
288548,112.256,-597.286,0,0
289849,114.613,-577.803,0,0
291151,126.998,-565.542,0,0
292452,141.418,-564.977,0,0
293754,147.501,-573.691,0,0
295056,144.386,-578.231,0,0
296357,146.166,-578.695,0,0
297659,145.9,-587.446,0,0
298960.525,137.56,-593.239,0,0
300262.15,128.134,-594.588,0,0
301563.775,119.477,-591.641,0,0
302865.4,115.466,-587.743,0,0
304167.025,111.801,-587.957,0,0
305468.65,104.394,-588.463,0,0
306770.275,95.2775,-585.805,0,0
308071.9,87.4361,-580.35,0,0
309373.525,81.3547,-574.234,0,0
310675.15,76.2426,-568.007,0,0
311976.775,71.7595,-561.373,0,0
313278.4,68.4836,-554.634,0,0
314580,65.6933,-548.438,0,0
315882,63.2303,-542.184,0,0
317183,61.1893,-535.81,0,0
318485,60.0051,-529.709,0,0
319787,59.1224,-524.11,0,0
321088,58.1375,-518.686,0,0
322390,57.3178,-513.364,0,0
323691,56.4105,-507.734,0,0
324993,56.1969,-501.196,0,0
326295,58.34,-494.737,0,0
327596,61.5595,-490.858,0,0
328898,63.7067,-488.509,0,0
330200,65.3052,-486.797,0,0
331501.125,66.104,-485.975,0,0
332802.75,65.4342,-485.758,0,0
334104.375,63.0293,-484.452,0,0
335406.0,60.6234,-481.72,0,0
336707.625,58.6883,-478.415,0,0
338009.25,56.9327,-474.634,0,0
339310.875,55.6241,-470.502,0,0
340612.5,54.7549,-466.253,0,0
341914.125,54.2753,-461.948,0,0
343215.75,54.1392,-457.634,0,0
344517.375,54.4121,-453.284,0,0
345819.0,55.2225,-449.157,0,0
347121,56.3561,-445.362,0,0
348422,57.794,-441.859,0,0
349724,59.3896,-438.8,0,0
351025,61.1044,-436.347,0,0
352327,62.4364,-434.325,0,0
353629,63.5067,-432.269,0,0
354930,64.7797,-430.285,0,0
356232,65.9966,-428.488,0,0
357534,67.4721,-426.792,0,0
358835,69.1764,-425.706,0,0
360137,70.717,-425.564,0,0
361438,71.1544,-425.77,0,0
362740.1,71.0914,-425.885,0,0
364041.725,70.3332,-425.811,0,0
365343.35,69.4008,-425.371,0,0
366644.975,68.142,-424.409,0,0
367946.6,67.2086,-422.825,0,0
369248.225,67.0194,-421.472,0,0
370549.85,66.6311,-421.063,0,0
371851.475,65.3164,-420.455,0,0
373153.1,64.0344,-419.296,0,0
374454.725,62.8748,-418.193,0,0
375756.35,61.3949,-417.138,0,0
377057.975,59.866,-415.828,0,0
378359.6,58.2377,-414.756,0,0
379661,55.4576,-413.38,0,0
380963,53.0571,-409.833,0,0
382264,52.8956,-407.001,0,0
383566,51.8189,-405.564,0,0
384868,49.8759,-403.592,0,0
386169,47.9312,-400.886,0,0
387471,46.2998,-397.602,0,0
388773,45.2546,-394.104,0,0
390074,44.9407,-390.62,0,0
391376,45.1638,-387.887,0,0
392677,44.6292,-386.119,0,0
393979,43.0577,-383.711,0,0
395280.7,41.5432,-380.289,0,0
396582.325,40.7682,-376.273,0,0
397883.95,40.7552,-372.239,0,0
399185.575,41.228,-368.491,0,0
400006.6,41.64,-366.368,0,0