Folder: ML_Dmg_Mehdi_Dataset/Accelerated corrosion test data/2025-10-06_14-56-48 (part 4)

File: sample_8.csv
Frequency (Hz),Impedance (ohms),Phase (Radians),Temperature (C),Humidity (%)
10000.0,315.441,-10893,0,0
11301.625,279.226,-9653.62,0,0
12603.25,257.467,-8670.05,0,0
13904.875,228.125,-7873.71,0,0
15206.5,208.02,-7205.28,0,0
16508.125,191.953,-6643.27,0,0
17809.75,177.721,-6160.52,0,0
19111.375,169.544,-5741.6,0,0
20413.0,161.756,-5381.15,0,0
21714.625,152.331,-5062.76,0,0
23016.25,146.09,-4781.26,0,0
24317.875,135.584,-4527.01,0,0
25619.5,128.694,-4295.78,0,0
26921.1,123.406,-4086.61,0,0
28222.7,120.162,-3897.8,0,0
29524.4,117.547,-3725.35,0,0
30826,115.748,-3569.16,0,0
32127.6,113.465,-3424.43,0,0
33429.2,115.029,-3290.6,0,0
34730.9,112.769,-3173.59,0,0
36032.5,106.93,-3064.44,0,0
37334.1,99.9063,-2958.53,0,0
38635.7,93.0117,-2858.22,0,0
39937.4,87.5812,-2762.31,0,0
41239,85.1435,-2672.11,0,0
42540.6,82.8086,-2587.6,0,0
43842.225,82.1924,-2510.19,0,0
45143.85,78.8531,-2436.16,0,0
46445.475,76.4913,-2365.74,0,0
47747.1,75.191,-2298.83,0,0
49048.725,73.0085,-2236.42,0,0
50350.35,71.2689,-2175.88,0,0
51651.975,70.5102,-2118.15,0,0
52953.6,70.0927,-2064.11,0,0
54255.225,68.4591,-2014.49,0,0
55556.85,65.4885,-1965.19,0,0
56858.475,63.542,-1916.44,0,0
58160.1,62.6989,-1869.97,0,0
59461.7,62.4583,-1826.65,0,0
60763.3,61.0402,-1783.96,0,0
62065,60.869,-1743.27,0,0
63366.6,61.5404,-1703.8,0,0
64668.2,62.7986,-1668.02,0,0
65969.8,61.52,-1633.9,0,0
67271.5,59.3956,-1599.48,0,0
68573.1,58.5801,-1565.48,0,0
69874.7,58.5708,-1532.52,0,0
71176.3,58.8724,-1501.31,0,0
72478,59.1307,-1471.9,0,0
73779.6,57.9941,-1442.96,0,0
75081.2,57.6564,-1414.42,0,0
76382.825,57.7983,-1386.69,0,0
77684.45,57.5239,-1360.16,0,0
78986.075,57.0738,-1333.83,0,0
80287.7,57.2494,-1307.78,0,0
81589.325,57.683,-1282.26,0,0
82890.95,59.2929,-1257.77,0,0
84192.575,61.2423,-1234.54,0,0
85494.2,61.8356,-1213.69,0,0
86795.825,61.8829,-1190.47,0,0
88097.45,63.7125,-1168.28,0,0
89399.075,65.769,-1146.81,0,0
90700.7,69.0259,-1125.8,0,0
92002.3,73.8663,-1107.94,0,0
93303.9,75.4502,-1093.34,0,0
94605.6,75.3135,-1075.55,0,0
95907.2,76.5065,-1058.29,0,0
97208.8,78.302,-1041.27,0,0
98510.4,80.5843,-1026.22,0,0
99812.1,80.4808,-1011.98,0,0
101114,80.8249,-997.684,0,0
102415,79.597,-982.976,0,0
103717,79.2457,-967.103,0,0
105019,79.0993,-952.012,0,0
106320.175,80.1446,-936.605,0,0
107621.8,81.0887,-923.081,0,0
108923.425,80.5981,-909.005,0,0
110225.05,81.3214,-895.146,0,0
111526.675,81.2654,-882.102,0,0
112828.3,81.3178,-868.686,0,0
114129.925,81.0557,-855.605,0,0
115431.55,80.5837,-842.396,0,0
116733.175,79.8487,-829.015,0,0
118034.8,79.6693,-814.807,0,0
119336.425,80.0284,-801.687,0,0
120638.05,79.8089,-788.323,0,0
121939.675,79.9792,-774.64,0,0
123241,80.1743,-761.436,0,0
124543,80.6811,-747.107,0,0
125845,82.4295,-733.696,0,0
127146,83.9321,-721.11,0,0
128448,84.6914,-708.825,0,0
129749,84.775,-696.032,0,0
131051,86.2215,-682.029,0,0
132353,87.0342,-669.641,0,0
133654,88.3847,-655.529,0,0
134956,90.3682,-641.841,0,0
136258,93.741,-629.056,0,0
137559,94.2273,-617.98,0,0
138860.775,93.9007,-603.164,0,0
140162.4,95.4498,-587.795,0,0
141464.025,97.648,-571.628,0,0
142765.65,100.745,-554.834,0,0
144067.275,105.234,-537.227,0,0
145368.9,112.518,-518.054,0,0
146670.525,123.175,-501.948,0,0
147972.15,132.419,-488.444,0,0
149273.775,142.119,-470.338,0,0
150575.4,158.626,-452.444,0,0
151877.025,182.244,-444.562,0,0
153178.65,195.599,-445.631,0,0
154480,203.298,-441.655,0,0
155782,216.381,-434.811,0,0
157084,222.151,-441.396,0,0
158385,221.657,-427.325,0,0
159687,237.547,-420.062,0,0
160988,239.879,-417.427,0,0
162290,250.777,-404.563,0,0
163592,267.675,-403.175,0,0
164893,275.082,-408.061,0,0
166195,274.192,-414.214,0,0
167497,264.448,-408.898,0,0
168798,258.106,-393.144,0,0
170100,259.112,-372.358,0,0
171401.375,264.782,-349.19,0,0
172703.0,279.806,-324.725,0,0
174004.625,299.589,-307.151,0,0
175306.25,317.3,-293.894,0,0
176607.875,336.062,-274.282,0,0
177909.5,362.318,-258.51,0,0
179211.125,394.771,-242.896,0,0
180512.75,431.379,-238.318,0,0
181814.375,463.126,-237.555,0,0
183116.0,496.649,-240.327,0,0
184417.625,523.279,-243.168,0,0
185719.25,557.714,-242.929,0,0
187021,598.739,-249.286,0,0
188322,641.21,-260.106,0,0
189624,683.394,-287.761,0,0
190926,713.826,-309.053,0,0
192227,760.098,-334.091,0,0
193529,807.277,-367.354,0,0
194831,866.138,-432.158,0,0
196132,894.865,-518.711,0,0
197434,893.532,-620.385,0,0
198735,857.117,-708.113,0,0
200037,803.424,-779.825,0,0
201339,732.035,-821.841,0,0
202640.35,664.252,-844.915,0,0
203941.975,602.519,-840.922,0,0
205243.6,558.853,-830.844,0,0
206545.225,518.508,-812.998,0,0
207846.85,499.459,-788.53,0,0
209148.475,487.411,-773.355,0,0
210450.1,483.395,-758.108,0,0
211751.725,485.197,-752.397,0,0
213053.35,487.945,-755.659,0,0
214354.975,483.431,-766.166,0,0
215656.6,470.197,-773.907,0,0
216958.225,456.13,-771.564,0,0
218259.85,453.87,-767.098,0,0
219561,455.119,-772.164,0,0
220863,453.245,-782.176,0,0
222165,449.296,-796.255,0,0
223466,437.012,-813.332,0,0
224768,422.242,-827.751,0,0
226070,399.93,-843.255,0,0
227371,372.443,-850.882,0,0
228673,344.701,-849.346,0,0
229974,324.109,-846.762,0,0
231276,299.675,-844.537,0,0
232578,275.563,-836.571,0,0
233879,253.97,-824.665,0,0
235180.95,235.382,-809.063,0,0
236482.575,222.241,-791.906,0,0
237784.2,213.856,-776.012,0,0
239085.825,208.191,-761.912,0,0
240387.45,204.564,-753.001,0,0
241689.075,197.133,-745.819,0,0
242990.7,187.135,-736.109,0,0
244292.325,179.158,-723.033,0,0
245593.95,174.073,-709.534,0,0
246895.575,171.893,-696.372,0,0
248197.2,170.052,-686.449,0,0
249498.825,166.203,-674.681,0,0
250800,165.906,-660.451,0,0
252102,170.549,-647.183,0,0
253404,177.758,-639.972,0,0
254705,180.57,-635.816,0,0
256007,182.38,-629.378,0,0
257309,186.147,-623.036,0,0
258610,191.605,-617.258,0,0
259912,198.177,-614.669,0,0
261213,203.235,-614.565,0,0
262515,206.471,-615.01,0,0
263817,208.539,-614.723,0,0
265118,210.78,-612.614,0,0
266420,217.566,-609.433,0,0
267721.55,229.8,-611.309,0,0
269023.175,241.812,-623.041,0,0
270324.8,246.262,-641.901,0,0
271626.425,241.421,-662.725,0,0
272928.05,227.333,-681.368,0,0
274229.675,205.486,-692.802,0,0
275531.3,181.965,-694.042,0,0
276832.925,162.592,-688.233,0,0
278134.55,147.478,-679.26,0,0
279436.175,135.61,-668.175,0,0
280737.8,128.742,-655.993,0,0
282039.425,125.877,-646.204,0,0
283341,123.905,-639.33,0,0
284643,121.498,-632.862,0,0
285944,121.277,-626.163,0,0
287246,123.864,-623.903,0,0
288548,122.138,-627.068,0,0
289849,114.732,-628.114,0,0
291151,107.269,-625.592,0,0
292452,99.5946,-622.714,0,0
293754,91.521,-617.278,0,0
295056,84.8576,-610.392,0,0
296357,79.5997,-602.667,0,0
297659,75.6981,-594.969,0,0
298960.525,72.5434,-587.316,0,0
300262.15,70.3192,-579.459,0,0
301563.775,69.5219,-571.758,0,0
302865.4,69.8555,-565.215,0,0
304167.025,70.3928,-559.831,0,0
305468.65,70.8915,-555.112,0,0
306770.275,71.4961,-551.21,0,0
308071.9,71.9876,-547.987,0,0
309373.525,71.8443,-545.969,0,0
310675.15,70.2944,-543.628,0,0
311976.775,68.7189,-540.852,0,0
313278.4,66.8099,-538.05,0,0
314580,64.4622,-534.64,0,0
315882,62.5838,-530.631,0,0
317183,61.2738,-526.454,0,0
318485,60.4323,-522.508,0,0
319787,59.8721,-519.088,0,0
321088,59.348,-516.27,0,0
322390,58.0871,-513.809,0,0
323691,56.5263,-511.266,0,0
324993,54.383,-508.606,0,0
326295,51.9882,-505.14,0,0
327596,50.0333,-501.262,0,0
328898,48.291,-497.246,0,0
330200,46.793,-493.196,0,0
331501.125,45.4866,-488.902,0,0
332802.75,44.451,-484.503,0,0
334104.375,43.8844,-480.123,0,0
335406.0,43.8209,-476.018,0,0
336707.625,43.9513,-472.403,0,0
338009.25,43.8214,-469.182,0,0
339310.875,43.5318,-466.224,0,0
340612.5,42.936,-463.213,0,0
341914.125,42.2005,-460.042,0,0
343215.75,41.3405,-456.598,0,0
344517.375,40.7518,-453.001,0,0
345819.0,40.3404,-449.277,0,0
347121,40.1911,-445.51,0,0
348422,40.3319,-441.895,0,0
349724,40.6348,-438.439,0,0
351025,41.0581,-435.204,0,0
352327,41.4522,-432.215,0,0
353629,41.8589,-429.356,0,0
354930,42.2239,-426.6,0,0
356232,42.6377,-424.068,0,0
357534,42.6448,-421.71,0,0
358835,42.5288,-419.127,0,0
360137,42.3721,-416.334,0,0
361438,42.3761,-413.459,0,0
362740.1,42.543,-410.446,0,0
364041.725,42.8894,-407.416,0,0
365343.35,43.5833,-404.505,0,0
366644.975,44.4213,-402.006,0,0
367946.6,45.0432,-399.622,0,0
369248.225,45.6862,-397.11,0,0
370549.85,46.9134,-394.658,0,0
371851.475,48.1259,-393.062,0,0
373153.1,48.8715,-391.932,0,0
374454.725,48.9285,-390.755,0,0
375756.35,48.8262,-389.131,0,0
377057.975,49.0573,-387.318,0,0
378359.6,49.2177,-386.054,0,0
379661,48.5822,-384.447,0,0
380963,48.9101,-382.182,0,0
382264,49.4085,-381.471,0,0
383566,48.3267,-380.748,0,0
384868,46.7521,-379.043,0,0
386169,45.4817,-376.528,0,0
387471,44.5852,-373.63,0,0
388773,44.257,-370.613,0,0
390074,44.3672,-367.81,0,0
391376,44.4514,-365.356,0,0
392677,44.4504,-362.915,0,0
393979,44.4493,-360.448,0,0
395280.7,44.4822,-357.903,0,0
396582.325,44.7363,-355.298,0,0
397883.95,45.0575,-352.966,0,0
399185.575,45.1748,-350.647,0,0
400006.6,45.1825,-349.091,0,0