Folder: ML_Dmg_Mehdi_Dataset/Accelerated corrosion test data/2025-10-23_18-00-04

Note: README.md
# ML_Dmg_Mehdi_Dataset

File: sample_1.csv
Frequency (Hz),Impedance (ohms),Phase (Radians),Temperature (C),Humidity (%)
10000.0,241.757,-12220.5,0,0
11301.625,215.079,-10824.5,0,0
12603.25,195.529,-9722.54,0,0
13904.875,182.728,-8797.88,0,0
15206.5,190.216,-8062.84,0,0
16508.125,155.302,-7440.02,0,0
17809.75,144.603,-6902.46,0,0
19111.375,135.748,-6433.88,0,0
20413.0,155.961,-5989.43,0,0
21714.625,135.218,-5671.45,0,0
23016.25,121.777,-5370.38,0,0
24317.875,113.192,-5077.02,0,0
25619.5,105.184,-4811.9,0,0
26921.1,113.966,-4561.72,0,0
28222.7,110.612,-4359.3,0,0
29524.4,107.871,-4193.52,0,0
30826,100.923,-4005.62,0,0
32127.6,97.916,-3847.6,0,0
33429.2,88.9285,-3703.94,0,0
34730.9,81.887,-3561.57,0,0
36032.5,77.9928,-3430.21,0,0
37334.1,75.4731,-3307.97,0,0
38635.7,72.7745,-3194.01,0,0
39937.4,70.8653,-3086.95,0,0
41239,72.1757,-2988.04,0,0
42540.6,70.4958,-2895.41,0,0
43842.225,68.1099,-2809.01,0,0
45143.85,68.1187,-2727.62,0,0
46445.475,65.0045,-2650.13,0,0
47747.1,63.9675,-2576.91,0,0
49048.725,61.5971,-2506.59,0,0
50350.35,59.5535,-2440.08,0,0
51651.975,58.6786,-2376.34,0,0
52953.6,57.6362,-2315.39,0,0
54255.225,56.5553,-2258.37,0,0
55556.85,55.6593,-2202.69,0,0
56858.475,54.7767,-2149.54,0,0
58160.1,54.4388,-2098.96,0,0
59461.7,54.0927,-2050.99,0,0
60763.3,54.26,-2004.89,0,0
62065,52.9493,-1961.03,0,0
63366.6,52.1663,-1917.46,0,0
64668.2,52.6784,-1875.06,0,0
65969.8,54.8316,-1837.25,0,0
67271.5,53.5992,-1801.07,0,0
68573.1,52.8701,-1765.12,0,0
69874.7,52.1387,-1731.09,0,0
71176.3,49.9383,-1696.26,0,0
72478,48.2459,-1662.68,0,0
73779.6,47.8606,-1629.21,0,0
75081.2,48.2225,-1596.8,0,0
76382.825,48.7835,-1565.96,0,0
77684.45,50.0724,-1536.44,0,0
78986.075,51.6314,-1508.89,0,0
80287.7,50.7809,-1482.26,0,0
81589.325,50.216,-1454.53,0,0
82890.95,50.8684,-1427.7,0,0
84192.575,52.4226,-1401.58,0,0
85494.2,54.2852,-1376.62,0,0
86795.825,55.5065,-1353.37,0,0
88097.45,55.9684,-1330.07,0,0
89399.075,57.6244,-1305.22,0,0
90700.7,60.9724,-1282.35,0,0
92002.3,67.0786,-1261.14,0,0
93303.9,74.5815,-1243.05,0,0
94605.6,73.3411,-1237.05,0,0
95907.2,67.0385,-1217.68,0,0
97208.8,65.2475,-1197.32,0,0
98510.4,64.26,-1177.28,0,0
99812.1,63.3975,-1157.7,0,0
101114,62.974,-1137.31,0,0
102415,63.4497,-1115.53,0,0
103717,68.6752,-1094.26,0,0
105019,75.3364,-1077.57,0,0
106320.175,80.5248,-1061.24,0,0
107621.8,87.0665,-1048.16,0,0
108923.425,91.5031,-1037.15,0,0
110225.05,94.0849,-1028.3,0,0
111526.675,93.9541,-1016.04,0,0
112828.3,97.468,-1006.17,0,0
114129.925,96.3274,-999.218,0,0
115431.55,92.699,-989.768,0,0
116733.175,88.4456,-978.025,0,0
118034.8,83.7371,-964.193,0,0
119336.425,81.5428,-948.781,0,0
120638.05,81.5285,-934.433,0,0
121939.675,80.219,-921.67,0,0
123241,78.8407,-906.753,0,0
124543,78.7641,-891.972,0,0
125845,79.3281,-877.168,0,0
127146,80.3729,-862.884,0,0
128448,82.1759,-848.181,0,0
129749,85.0998,-834.016,0,0
131051,89.6429,-820.97,0,0
132353,93.8166,-809.872,0,0
133654,96.6281,-799.298,0,0
134956,99.7279,-788.392,0,0
136258,102.927,-777.665,0,0
137559,108.194,-768.062,0,0
138860.775,110.382,-762.523,0,0
140162.4,109.537,-753.781,0,0
141464.025,109.658,-743.88,0,0
142765.65,110.262,-733.088,0,0
144067.275,111.626,-721.68,0,0
145368.9,114.174,-710.253,0,0
146670.525,117.544,-700.497,0,0
147972.15,119.178,-692.482,0,0
149273.775,120.817,-682.053,0,0
150575.4,121.831,-673.021,0,0
151877.025,121.165,-661.851,0,0
153178.65,121.04,-647.332,0,0
154480,124.629,-631.131,0,0
155782,131.251,-614.343,0,0
157084,143.109,-598.329,0,0
158385,155.467,-589.656,0,0
159687,164.377,-578.087,0,0
160988,182.029,-566.004,0,0
162290,202.046,-565.529,0,0
163592,213.418,-568.081,0,0
164893,226.418,-567.684,0,0
166195,239.814,-574.754,0,0
167497,247.106,-585.192,0,0
168798,247.017,-597.806,0,0
170100,238.81,-605.787,0,0
171401.375,230.016,-604.589,0,0
172703.0,225.587,-599.706,0,0
174004.625,223.308,-595.894,0,0
175306.25,221.431,-591.629,0,0
176607.875,220.277,-588.938,0,0
177909.5,218.067,-584.872,0,0
179211.125,215.702,-583.864,0,0
180512.75,207.425,-582.238,0,0
181814.375,198.796,-573,0,0
183116.0,192.227,-561.689,0,0
184417.625,187.328,-547.52,0,0
185719.25,186.089,-531.936,0,0
187021,187.065,-517.083,0,0
188322,190.563,-501.705,0,0
189624,194.184,-488.348,0,0
190926,197.169,-473.361,0,0
192227,203.033,-456.488,0,0
193529,210.923,-439.096,0,0
194831,221.832,-422.094,0,0
196132,235.065,-404.82,0,0
197434,251.581,-388.932,0,0
198735,269.648,-374.42,0,0
200037,288.825,-358.897,0,0
201339,313.164,-343.516,0,0
202640.35,344.53,-326.946,0,0
203941.975,386.988,-316.191,0,0
205243.6,438.298,-322.187,0,0
206545.225,484.154,-347.145,0,0
207846.85,514.75,-382.908,0,0
209148.475,533.718,-422.317,0,0
210450.1,534.544,-463.004,0,0
211751.725,520.819,-482.375,0,0
213053.35,520.742,-482.916,0,0
214354.975,534.322,-493.804,0,0
215656.6,544.714,-509.469,0,0
216958.225,554.496,-524.913,0,0
218259.85,564.569,-542.752,0,0
219561,576.889,-558.009,0,0
220863,595.291,-580,0,0
222165,613.838,-615.716,0,0
223466,621.537,-662.764,0,0
224768,612.501,-712.829,0,0
226070,594.28,-756.593,0,0
227371,564.821,-799.739,0,0
228673,524.266,-833.788,0,0
229974,477.214,-852.637,0,0
231276,434.347,-857.065,0,0
232578,398.321,-854.435,0,0
233879,369.021,-847.928,0,0
235180.95,346.355,-842.608,0,0
236482.575,323.012,-839.533,0,0
237784.2,299.033,-834.242,0,0
239085.825,276.385,-825.275,0,0
240387.45,256.829,-814.522,0,0
241689.075,239.772,-803.226,0,0
242990.7,224.647,-791.122,0,0
244292.325,212.465,-779.478,0,0
245593.95,200.704,-768.853,0,0
246895.575,188.901,-758.009,0,0
248197.2,178.465,-745.32,0,0
249498.825,169.709,-732.857,0,0
250800,162.403,-720.215,0,0
252102,156.376,-708.331,0,0
253404,150.572,-695.932,0,0
254705,146.986,-682.764,0,0
256007,144.939,-671.265,0,0
257309,143.153,-659.895,0,0
258610,142.447,-648.28,0,0
259912,144.021,-636.649,0,0
261213,147.96,-627,0,0
262515,152.456,-619.633,0,0
263817,157.407,-613.954,0,0
265118,163.144,-609.772,0,0
266420,170.192,-609.72,0,0
267721.55,174.261,-615.328,0,0
269023.175,170.795,-622.896,0,0
270324.8,161.027,-625.919,0,0
271626.425,149.933,-622.575,0,0
272928.05,142.191,-614.016,0,0
274229.675,138.828,-604.929,0,0
275531.3,137.507,-596.743,0,0
276832.925,138.242,-589.472,0,0
278134.55,140.053,-584.242,0,0
279436.175,141.324,-581.173,0,0
280737.8,141.126,-578.633,0,0
282039.425,140.852,-576.237,0,0
283341,138.503,-574.237,0,0
284643,136.459,-569.925,0,0
285944,135.148,-566.419,0,0
287246,132.021,-562.343,0,0
288548,129.941,-554.91,0,0
289849,131.852,-547.772,0,0
291151,134.932,-544.064,0,0
292452,135.726,-541.676,0,0
293754,134.95,-538.24,0,0
295056,134.638,-532.702,0,0
296357,136.736,-526.155,0,0
297659,141.222,-521.14,0,0
298960.525,145.872,-517.838,0,0
300262.15,150.645,-515.085,0,0
301563.775,156.931,-512.965,0,0
302865.4,164.098,-514.573,0,0
304167.025,168.928,-517.498,0,0
305468.65,173.079,-521.419,0,0
306770.275,176.715,-526.608,0,0
308071.9,178.604,-533.757,0,0
309373.525,177.189,-541.209,0,0
310675.15,174.205,-547.524,0,0
311976.775,169.63,-553.32,0,0
313278.4,163.538,-557.759,0,0
314580,157.06,-560.361,0,0
315882,150.727,-562.817,0,0
317183,143.219,-564.627,0,0
318485,134.816,-564.857,0,0
319787,126.582,-563.139,0,0
321088,118.757,-559.956,0,0
322390,111.692,-555.146,0,0
323691,106.668,-548.998,0,0
324993,103.856,-543.158,0,0
326295,102.42,-538.433,0,0
327596,101.423,-535.251,0,0
328898,99.9475,-533.095,0,0
330200,97.8407,-531.414,0,0
331501.125,94.9265,-529.862,0,0
332802.75,91.4114,-527.992,0,0
334104.375,87.6468,-525.699,0,0
335406.0,83.5569,-522.619,0,0
336707.625,79.8109,-518.838,0,0
338009.25,76.6821,-514.673,0,0
339310.875,73.8361,-510.555,0,0
340612.5,71.411,-506.345,0,0
341914.125,69.3039,-502.309,0,0
343215.75,67.2046,-498.339,0,0
344517.375,65.1642,-494.425,0,0
345819.0,62.9884,-490.272,0,0
347121,60.9622,-485.776,0,0
348422,59.4607,-480.942,0,0
349724,58.5655,-476.248,0,0
351025,57.9486,-471.844,0,0
352327,57.3815,-467.594,0,0
353629,56.9952,-463.611,0,0
354930,56.5708,-459.715,0,0
356232,56.2878,-455.632,0,0
357534,56.1365,-451.759,0,0
358835,55.977,-447.965,0,0
360137,56.1363,-444.022,0,0
361438,56.4073,-440.4,0,0
362740.1,56.5217,-436.975,0,0
364041.725,56.7777,-433.175,0,0
365343.35,57.3864,-429.492,0,0
366644.975,57.9194,-426.108,0,0
367946.6,58.1746,-422.39,0,0
369248.225,59.0984,-418.048,0,0
370549.85,60.8207,-413.8,0,0
371851.475,63.5445,-409.949,0,0
373153.1,66.8391,-407.181,0,0
374454.725,70.004,-405.562,0,0
375756.35,72.724,-404.554,0,0
377057.975,75.1952,-403.945,0,0
378359.6,77.3071,-403.969,0,0
379661,78.6698,-404.082,0,0
380963,80.069,-403.809,0,0
382264,82.0483,-404.627,0,0
383566,82.8726,-406.804,0,0
384868,81.7315,-408.999,0,0
386169,79.5925,-410.078,0,0
387471,76.9456,-410.289,0,0
388773,74.18,-409.302,0,0
390074,72.1923,-407.707,0,0
391376,70.5341,-406.324,0,0
392677,68.6507,-405.091,0,0
393979,66.2593,-403.563,0,0
395280.7,63.8372,-401.123,0,0
396582.325,61.7334,-398.189,0,0
397883.95,60.0845,-394.819,0,0
399185.575,58.9644,-391.216,0,0
400006.6,58.5757,-389.032,0,0

File: sample_2.csv
Frequency (Hz),Impedance (ohms),Phase (Radians),Temperature (C),Humidity (%)
10000.0,235.081,-11467,0,0
11301.625,208.617,-10156.6,0,0
12603.25,187.649,-9118.58,0,0
13904.875,187.717,-8264.68,0,0
15206.5,170.453,-7575.41,0,0
16508.125,145.776,-6981.05,0,0
17809.75,135.93,-6472.09,0,0
19111.375,130.695,-6030.58,0,0
20413.0,119.906,-5645.82,0,0
21714.625,129.962,-5315.67,0,0
23016.25,114.228,-5019.07,0,0
24317.875,104.788,-4752.21,0,0
25619.5,99.1361,-4507.55,0,0
26921.1,96.0012,-4288.92,0,0
28222.7,90.7525,-4088.71,0,0
29524.4,93.7251,-3904.45,0,0
30826,88.814,-3750.03,0,0
32127.6,82.9317,-3595.45,0,0
33429.2,80.4199,-3456.55,0,0
34730.9,76.2317,-3325.28,0,0
36032.5,73.6626,-3203.3,0,0
37334.1,71.3709,-3089.45,0,0
38635.7,69.1809,-2983.9,0,0
39937.4,67.3608,-2884.98,0,0
41239,65.8104,-2791.46,0,0
42540.6,64.9615,-2704.92,0,0
43842.225,63.4683,-2622.3,0,0
45143.85,62.1243,-2544.28,0,0
46445.475,61.7897,-2471.83,0,0
47747.1,60.7478,-2402.44,0,0
49048.725,60.7567,-2338.32,0,0
50350.35,58.1955,-2275.97,0,0
51651.975,56.6758,-2216.5,0,0
52953.6,55.2965,-2159.02,0,0
54255.225,54.5065,-2103.98,0,0
55556.85,54.1417,-2052,0,0
56858.475,54.0997,-2001.99,0,0
58160.1,54.1748,-1954.55,0,0
59461.7,54.7602,-1908.22,0,0
60763.3,56.7298,-1865.66,0,0
62065,59.0406,-1827.28,0,0
63366.6,55.564,-1790.48,0,0
64668.2,52.8634,-1752.27,0,0
65969.8,50.9187,-1712.8,0,0
67271.5,51.2536,-1675.42,0,0
68573.1,54.0042,-1641.35,0,0
69874.7,55.638,-1610.9,0,0
71176.3,52.4047,-1583.07,0,0
72478,47.8487,-1552.41,0,0
73779.6,45.3691,-1519.07,0,0
75081.2,45.2318,-1486.65,0,0
76382.825,47.027,-1456.13,0,0
77684.45,49.8687,-1427.67,0,0
78986.075,52.9968,-1403.66,0,0
80287.7,51.9064,-1382.03,0,0
81589.325,49.0965,-1356.78,0,0
82890.95,48.0827,-1330.95,0,0
84192.575,48.7473,-1306.19,0,0
85494.2,49.4078,-1282.66,0,0
86795.825,50.596,-1260.26,0,0
88097.45,51.1084,-1239.01,0,0
89399.075,51.3554,-1217.59,0,0
90700.7,51.5237,-1197.44,0,0
92002.3,52.8716,-1176.04,0,0
93303.9,54.8521,-1157.13,0,0
94605.6,55.4007,-1140.64,0,0
95907.2,54.4627,-1120.89,0,0
97208.8,57.896,-1103.46,0,0
98510.4,57.3158,-1089.8,0,0
99812.1,53.6068,-1074.66,0,0
101114,50.6472,-1057.5,0,0
102415,46.9337,-1037.47,0,0
103717,46.0905,-1016.22,0,0
105019,49.5533,-995.872,0,0
106320.175,53.9907,-978.415,0,0
107621.8,57.9689,-966.517,0,0
108923.425,56.3274,-954.849,0,0
110225.05,53.0732,-939.499,0,0
111526.675,51.7471,-921.529,0,0
112828.3,52.1568,-904.058,0,0
114129.925,53.8241,-886.888,0,0
115431.55,56.5141,-870.267,0,0
116733.175,60.0381,-854.698,0,0
118034.8,63.9671,-840.392,0,0
119336.425,68.2027,-828.277,0,0
120638.05,70.6227,-818.062,0,0
121939.675,70.2523,-807.352,0,0
123241,69.1492,-794.674,0,0
124543,68.4743,-781.018,0,0
125845,68.172,-766.142,0,0
127146,69.5753,-750.56,0,0
128448,72.3261,-736.258,0,0
129749,75.1711,-722.761,0,0
131051,78.0366,-710.02,0,0
132353,79.4231,-697.738,0,0
133654,80.9282,-684.07,0,0
134956,82.0211,-670.352,0,0
136258,84.1966,-655.05,0,0
137559,87.3065,-639.845,0,0
138860.775,90.7719,-624.899,0,0
140162.4,94.0812,-608.863,0,0
141464.025,99.8359,-590.571,0,0
142765.65,109.157,-573.453,0,0
144067.275,118.967,-557.903,0,0
145368.9,130.228,-543.249,0,0
146670.525,142.43,-529.055,0,0
147972.15,156.801,-514.775,0,0
149273.775,176.536,-500.455,0,0
150575.4,204.51,-495.38,0,0
151877.025,227.29,-505.379,0,0
153178.65,237.551,-520.808,0,0
154480,236.449,-531.75,0,0
155782,233.263,-534.819,0,0
157084,227.538,-535.784,0,0
158385,224.824,-530.165,0,0
159687,223.702,-524.859,0,0
160988,223.429,-517.901,0,0
162290,230.387,-514.385,0,0
163592,226.924,-519.45,0,0
164893,213.63,-516.468,0,0
166195,201.437,-503.202,0,0
167497,194.726,-484.944,0,0
168798,190.972,-464.421,0,0
170100,191.7,-441.14,0,0
171401.375,196.735,-418.691,0,0
172703.0,204.55,-395.194,0,0
174004.625,216.955,-371.18,0,0
175306.25,235.515,-348.074,0,0
176607.875,259.314,-329.1,0,0
177909.5,286.485,-317.938,0,0
179211.125,309.548,-316.84,0,0
180512.75,320.031,-316.922,0,0
181814.375,325.766,-299.8,0,0
183116.0,342.9,-281.181,0,0
184417.625,365.717,-258.456,0,0
185719.25,398.327,-239.49,0,0
187021,436.489,-225.037,0,0
188322,479.523,-218.172,0,0
189624,517.726,-217.32,0,0
190926,562.069,-209.908,0,0
192227,621.228,-207.741,0,0
193529,692.785,-222.434,0,0
194831,763.538,-265.654,0,0
196132,816.753,-326.335,0,0
197434,857.659,-389.948,0,0
198735,892.044,-469.408,0,0
200037,903.25,-554.713,0,0
201339,895.67,-643.166,0,0
202640.35,861.062,-721.056,0,0
203941.975,818.303,-784.335,0,0
205243.6,767.066,-839.217,0,0
206545.225,700.44,-871.934,0,0
207846.85,643.203,-882.516,0,0
209148.475,604.889,-886.184,0,0
210450.1,566.138,-899.28,0,0
211751.725,518.088,-904.947,0,0
213053.35,475.996,-894.871,0,0
214354.975,442.259,-881.253,0,0
215656.6,414.79,-865.915,0,0
216958.225,393.359,-847.611,0,0
218259.85,378.616,-830.968,0,0
219561,368.103,-815.703,0,0
220863,361.179,-803.204,0,0
222165,357.39,-792.7,0,0
223466,354.988,-786.954,0,0
224768,352.377,-782.924,0,0
226070,349.321,-780.52,0,0
227371,348.31,-779.73,0,0
228673,347.771,-784.339,0,0
229974,341.593,-794.01,0,0
231276,329.847,-801.433,0,0
232578,315.656,-807.863,0,0
233879,297.85,-810.733,0,0
235180.95,280.635,-809.88,0,0
236482.575,263.881,-807.52,0,0
237784.2,246.46,-802.848,0,0
239085.825,231.001,-795.391,0,0
240387.45,216.675,-786.975,0,0
241689.075,204.12,-777.067,0,0
242990.7,194.011,-766.591,0,0
244292.325,186.241,-757.56,0,0
245593.95,178.092,-751.199,0,0
246895.575,166.352,-745.346,0,0
248197.2,153.129,-735.412,0,0
249498.825,141.132,-722.576,0,0
250800,131.111,-706.937,0,0
252102,125.011,-689.731,0,0
253404,121.924,-673.502,0,0
254705,120.207,-657.774,0,0
256007,120.842,-641.481,0,0
257309,124.59,-626.888,0,0
258610,129.884,-613.847,0,0
259912,136.938,-602.54,0,0
261213,145.449,-593.853,0,0
262515,154.253,-587.983,0,0
263817,162.401,-584.607,0,0
265118,169.803,-583.07,0,0
266420,175.517,-583.142,0,0
267721.55,179.919,-583.731,0,0
269023.175,182.847,-585.032,0,0
270324.8,183.955,-585.196,0,0
271626.425,185.503,-582.792,0,0
272928.05,190.397,-580.085,0,0
274229.675,198.609,-579.161,0,0
275531.3,210.722,-585.096,0,0
276832.925,216.607,-601.225,0,0
278134.55,211.891,-617.083,0,0
279436.175,201.318,-628.6,0,0
280737.8,188.175,-634.839,0,0
282039.425,175.378,-637.771,0,0
283341,160.569,-637.724,0,0
284643,148.681,-632.4,0,0
285944,136.693,-628.425,0,0
287246,122.828,-618.58,0,0
288548,113.947,-601.451,0,0
289849,115.27,-582.346,0,0
291151,126.055,-568.184,0,0
292452,141.907,-566.001,0,0
293754,149.164,-574.861,0,0
295056,145.913,-580.046,0,0
296357,147.463,-578.384,0,0
297659,150.955,-588.133,0,0
298960.525,142.038,-596.797,0,0
300262.15,131.156,-598.268,0,0
301563.775,122.876,-595.372,0,0
302865.4,117.969,-592.333,0,0
304167.025,113.506,-591.878,0,0
305468.65,106.443,-591.817,0,0
306770.275,97.9514,-589.234,0,0
308071.9,90.2981,-584.653,0,0
309373.525,83.7142,-578.974,0,0
310675.15,78.2003,-572.958,0,0
311976.775,73.3869,-566.559,0,0
313278.4,69.463,-559.912,0,0
314580,66.2315,-553.353,0,0
315882,63.6711,-546.942,0,0
317183,61.3762,-540.5,0,0
318485,59.8268,-534.126,0,0
319787,58.7081,-528.159,0,0
321088,57.6488,-522.56,0,0
322390,56.7086,-516.73,0,0
323691,56.0089,-510.739,0,0
324993,55.9873,-504.052,0,0
326295,58.1637,-497.457,0,0
327596,61.5287,-493.372,0,0
328898,63.8959,-490.782,0,0
330200,65.9483,-488.887,0,0
331501.125,67.2503,-488.305,0,0
332802.75,66.7352,-488.461,0,0
334104.375,64.316,-487.587,0,0
335406.0,61.8687,-485.022,0,0
336707.625,59.7577,-481.911,0,0
338009.25,57.895,-478.326,0,0
339310.875,56.4015,-474.529,0,0
340612.5,55.0741,-470.374,0,0
341914.125,54.1672,-465.972,0,0
343215.75,53.735,-461.434,0,0
344517.375,53.7978,-456.88,0,0
345819.0,54.5013,-452.462,0,0
347121,55.5411,-448.416,0,0
348422,56.7662,-444.63,0,0
349724,58.5071,-441.222,0,0
351025,60.4283,-438.51,0,0
352327,61.8897,-436.477,0,0
353629,63.0238,-434.319,0,0
354930,64.2783,-432.235,0,0
356232,65.5247,-430.179,0,0
357534,67.2357,-428.265,0,0
358835,69.163,-427.188,0,0
360137,70.683,-426.924,0,0
361438,71.4384,-427.043,0,0
362740.1,71.5253,-427.086,0,0
364041.725,71.0307,-427.096,0,0
365343.35,70.1008,-426.552,0,0
366644.975,69.1781,-425.447,0,0
367946.6,68.6329,-424.054,0,0
369248.225,68.7668,-423.141,0,0
370549.85,68.0253,-422.961,0,0
371851.475,66.7436,-422.141,0,0
373153.1,65.8767,-421.2,0,0
374454.725,64.6644,-420.439,0,0
375756.35,63.1101,-419.553,0,0
377057.975,61.5157,-418.219,0,0
378359.6,59.9878,-417.278,0,0
379661,57.1955,-416.226,0,0
380963,54.5854,-412.723,0,0
382264,54.5186,-409.945,0,0
383566,53.3795,-408.742,0,0
384868,51.2657,-406.904,0,0
386169,49.1714,-404.327,0,0
387471,47.3574,-401.17,0,0
388773,46.0016,-397.617,0,0
390074,45.5011,-393.909,0,0
391376,45.743,-391.1,0,0
392677,45.2395,-389.35,0,0
393979,43.5859,-387.093,0,0
395280.7,41.7777,-383.608,0,0
396582.325,40.8796,-379.422,0,0
397883.95,40.7539,-375.194,0,0
399185.575,41.3067,-371.276,0,0
400006.6,41.8012,-369.024,0,0