Folder: ML_Dmg_Mehdi_Dataset/Accelerated corrosion test data/2025-10-11_18-00-03 (part 4)

File: sample_8.csv
Frequency (Hz),Impedance (ohms),Phase (Radians),Temperature (C),Humidity (%)
10000.0,312.021,-10943.5,0,0
11301.625,276.694,-9698.48,0,0
12603.25,254.745,-8709.6,0,0
13904.875,225.882,-7910,0,0
15206.5,206.076,-7238.28,0,0
16508.125,189.951,-6673.17,0,0
17809.75,176.831,-6188.32,0,0
19111.375,168.385,-5767.16,0,0
20413.0,160.204,-5405.37,0,0
21714.625,150.787,-5085.54,0,0
23016.25,145.38,-4802.88,0,0
24317.875,134.29,-4546.89,0,0
25619.5,127.612,-4314.79,0,0
26921.1,122.178,-4104.51,0,0
28222.7,119.324,-3913.91,0,0
29524.4,116.967,-3741.3,0,0
30826,115.965,-3583.97,0,0
32127.6,114.314,-3439.31,0,0
33429.2,115.912,-3305.57,0,0
34730.9,113.302,-3189.92,0,0
36032.5,105.465,-3080.02,0,0
37334.1,97.87,-2972.83,0,0
38635.7,91.2772,-2871.19,0,0
39937.4,86.2089,-2774.55,0,0
41239,84.0256,-2683.84,0,0
42540.6,81.6969,-2599.14,0,0
43842.225,81.0643,-2520.96,0,0
45143.85,77.9238,-2446.81,0,0
46445.475,75.4107,-2376.17,0,0
47747.1,74.1281,-2309.04,0,0
49048.725,72.1131,-2246.08,0,0
50350.35,70.2579,-2185.22,0,0
51651.975,69.6397,-2127.45,0,0
52953.6,69.3332,-2073.24,0,0
54255.225,67.8851,-2023.25,0,0
55556.85,64.8738,-1973.89,0,0
56858.475,62.7774,-1924.92,0,0
58160.1,61.9595,-1878.24,0,0
59461.7,61.7031,-1834.59,0,0
60763.3,60.3535,-1791.84,0,0
62065,60.2353,-1750.97,0,0
63366.6,60.7769,-1711.27,0,0
64668.2,62.2068,-1675.42,0,0
65969.8,60.9627,-1641.25,0,0
67271.5,58.7552,-1606.68,0,0
68573.1,57.8304,-1572.69,0,0
69874.7,57.7338,-1539.4,0,0
71176.3,57.9223,-1508.06,0,0
72478,58.1505,-1478.55,0,0
73779.6,57.3912,-1449.31,0,0
75081.2,56.8267,-1420.79,0,0
76382.825,56.7716,-1392.79,0,0
77684.45,56.6476,-1366.1,0,0
78986.075,56.3077,-1339.61,0,0
80287.7,56.4855,-1313.56,0,0
81589.325,56.9107,-1287.82,0,0
82890.95,58.5451,-1263.32,0,0
84192.575,60.3185,-1239.96,0,0
85494.2,61.2445,-1218.88,0,0
86795.825,61.1491,-1195.81,0,0
88097.45,62.8447,-1173.26,0,0
89399.075,64.908,-1151.74,0,0
90700.7,68.1197,-1130.44,0,0
92002.3,72.9907,-1112.31,0,0
93303.9,75.3364,-1097.43,0,0
94605.6,74.2862,-1079.53,0,0
95907.2,76.3117,-1062.18,0,0
97208.8,78.2998,-1045.15,0,0
98510.4,80.731,-1030.25,0,0
99812.1,80.4714,-1016.37,0,0
101114,80.8505,-1001.9,0,0
102415,79.5812,-987.774,0,0
103717,78.2631,-971.705,0,0
105019,78.1666,-956.032,0,0
106320.175,78.9851,-939.879,0,0
107621.8,80.5192,-925.987,0,0
108923.425,80.4424,-911.699,0,0
110225.05,81.4571,-897.582,0,0
111526.675,81.8634,-884.34,0,0
112828.3,82.3248,-870.977,0,0
114129.925,82.5656,-858.202,0,0
115431.55,82.4431,-845.205,0,0
116733.175,81.8446,-832.178,0,0
118034.8,82.1879,-818.255,0,0
119336.425,82.9379,-805.639,0,0
120638.05,82.4008,-792.789,0,0
121939.675,82.5066,-779.644,0,0
123241,82.7659,-766.808,0,0
124543,82.8087,-753.274,0,0
125845,83.6794,-740.268,0,0
127146,84.49,-727.314,0,0
128448,84.9827,-714.506,0,0
129749,85.4663,-701.473,0,0
131051,86.5915,-688.15,0,0
132353,87.2148,-675.542,0,0
133654,87.8029,-661.897,0,0
134956,89.2446,-647.165,0,0
136258,92.7296,-633.766,0,0
137559,93.8975,-622.394,0,0
138860.775,93.7169,-607.774,0,0
140162.4,95.4812,-592.38,0,0
141464.025,98.0834,-576.506,0,0
142765.65,101.117,-560.321,0,0
144067.275,105.171,-542.931,0,0
145368.9,111.948,-523.933,0,0
146670.525,121.793,-507.151,0,0
147972.15,131.531,-492.878,0,0
149273.775,141.583,-474.054,0,0
150575.4,159.409,-456.982,0,0
151877.025,183.519,-449.057,0,0
153178.65,197.994,-451.321,0,0
154480,205.944,-449.733,0,0
155782,217.19,-443.095,0,0
157084,223.792,-450.886,0,0
158385,220.801,-440.279,0,0
159687,232.706,-431.817,0,0
160988,234.723,-428.787,0,0
162290,242.506,-415.151,0,0
163592,257.918,-409.902,0,0
164893,267.651,-412.074,0,0
166195,268.3,-418.696,0,0
167497,258.981,-414.008,0,0
168798,252.984,-399.739,0,0
170100,252.219,-380.17,0,0
171401.375,255.32,-357.725,0,0
172703.0,268.091,-330.097,0,0
174004.625,288.41,-311.253,0,0
175306.25,305.361,-297.021,0,0
176607.875,322.151,-275.206,0,0
177909.5,350,-254.83,0,0
179211.125,385.813,-240.34,0,0
180512.75,422.185,-235.739,0,0
181814.375,454.789,-235.443,0,0
183116.0,488.726,-239.763,0,0
184417.625,512.916,-244.739,0,0
185719.25,541.847,-240.869,0,0
187021,583.135,-242.227,0,0
188322,627.633,-250.714,0,0
189624,669.842,-277.469,0,0
190926,699.894,-296.081,0,0
192227,745.855,-320.057,0,0
193529,787.773,-344.431,0,0
194831,853.251,-392.484,0,0
196132,903.025,-475.585,0,0
197434,916.524,-583.09,0,0
198735,888.209,-683.662,0,0
200037,838.377,-764.52,0,0
201339,766.856,-818.438,0,0
202640.35,693.728,-850.912,0,0
203941.975,625.149,-850.492,0,0
205243.6,577.384,-840.296,0,0
206545.225,535.158,-823.871,0,0
207846.85,513.537,-800.276,0,0
209148.475,502.008,-785.123,0,0
210450.1,496.063,-773.573,0,0
211751.725,495.55,-770.456,0,0
213053.35,492.527,-775.943,0,0
214354.975,482.408,-784.483,0,0
215656.6,466.917,-789.442,0,0
216958.225,451.427,-785.805,0,0
218259.85,446.537,-780.862,0,0
219561,443.318,-781.28,0,0
220863,442.796,-787.02,0,0
222165,438.883,-797.659,0,0
223466,429.136,-812.129,0,0
224768,416.786,-823.866,0,0
226070,398.386,-839.872,0,0
227371,372.603,-848.922,0,0
228673,346.003,-848.751,0,0
229974,325.274,-847.183,0,0
231276,301.457,-845.249,0,0
232578,277.146,-838.723,0,0
233879,254.731,-827.253,0,0
235180.95,235.631,-811.752,0,0
236482.575,222.045,-794.41,0,0
237784.2,213.363,-777.8,0,0
239085.825,208.705,-763.256,0,0
240387.45,206.012,-754.631,0,0
241689.075,198.665,-748.866,0,0
242990.7,188.345,-739.923,0,0
244292.325,179.661,-727.663,0,0
245593.95,173.792,-714.454,0,0
246895.575,170.511,-701.663,0,0
248197.2,167.319,-691.109,0,0
249498.825,163.306,-678.856,0,0
250800,162.151,-664.271,0,0
252102,166.357,-650.106,0,0
253404,173.561,-642.627,0,0
254705,175.917,-638.113,0,0
256007,177.306,-631.325,0,0
257309,180.475,-624.056,0,0
258610,185.342,-617.581,0,0
259912,191.323,-612.984,0,0
261213,197.445,-610.731,0,0
262515,202.834,-610.682,0,0
263817,205.426,-611.071,0,0
265118,207.387,-608.688,0,0
266420,213.692,-604.658,0,0
267721.55,225.959,-604.442,0,0
269023.175,240.006,-613.352,0,0
270324.8,248.199,-631.402,0,0
271626.425,247.072,-653.616,0,0
272928.05,235.152,-674.564,0,0
274229.675,214.549,-689.655,0,0
275531.3,189.469,-693.301,0,0
276832.925,169.254,-688.013,0,0
278134.55,153.581,-680.214,0,0
279436.175,140.34,-670.157,0,0
280737.8,132.273,-657.591,0,0
282039.425,128.871,-646.83,0,0
283341,127.662,-639.681,0,0
284643,125.045,-633.73,0,0
285944,124.599,-626.629,0,0
287246,127.768,-623.966,0,0
288548,127.285,-627.941,0,0
289849,119.687,-630.459,0,0
291151,111.2,-628.627,0,0
292452,102.821,-625.568,0,0
293754,94.5463,-620.271,0,0
295056,87.3332,-613.397,0,0
296357,81.8991,-605.414,0,0
297659,77.8192,-597.798,0,0
298960.525,74.3817,-590.041,0,0
300262.15,71.9278,-581.971,0,0
301563.775,71.037,-573.966,0,0
302865.4,71.4682,-567.268,0,0
304167.025,72.0814,-561.745,0,0
305468.65,72.8176,-556.932,0,0
306770.275,73.7137,-553.088,0,0
308071.9,74.2873,-550.081,0,0
309373.525,74.2775,-548.375,0,0
310675.15,72.6538,-546.327,0,0
311976.775,70.8709,-543.769,0,0
313278.4,68.8379,-541.058,0,0
314580,66.3636,-538.004,0,0
315882,64.0362,-534.107,0,0
317183,62.3456,-529.766,0,0
318485,61.3998,-525.702,0,0
319787,60.7861,-522.094,0,0
321088,60.1355,-519.322,0,0
322390,58.8126,-516.721,0,0
323691,57.2568,-514.196,0,0
324993,54.9818,-511.483,0,0
326295,52.5715,-507.984,0,0
327596,50.5642,-504.071,0,0
328898,48.8041,-500.069,0,0
330200,47.1455,-495.918,0,0
331501.125,45.697,-491.654,0,0
332802.75,44.5513,-487.141,0,0
334104.375,43.9542,-482.597,0,0
335406.0,43.9159,-478.367,0,0
336707.625,44.0035,-474.729,0,0
338009.25,43.9885,-471.451,0,0
339310.875,43.6578,-468.437,0,0
340612.5,43.0482,-465.379,0,0
341914.125,42.2662,-462.179,0,0
343215.75,41.4822,-458.69,0,0
344517.375,40.9024,-455.13,0,0
345819.0,40.4127,-451.357,0,0
347121,40.3091,-447.543,0,0
348422,40.4829,-443.937,0,0
349724,40.8077,-440.493,0,0
351025,41.2469,-437.276,0,0
352327,41.6652,-434.225,0,0
353629,42.1367,-431.37,0,0
354930,42.5695,-428.781,0,0
356232,42.8914,-426.299,0,0
357534,42.8976,-424.026,0,0
358835,42.6343,-421.465,0,0
360137,42.4489,-418.741,0,0
361438,42.4122,-415.903,0,0
362740.1,42.4036,-413.027,0,0
364041.725,42.5932,-410.006,0,0
365343.35,43.1166,-406.964,0,0
366644.975,43.7716,-404.449,0,0
367946.6,44.2288,-401.964,0,0
369248.225,44.735,-399.269,0,0
370549.85,45.8213,-396.682,0,0
371851.475,46.9378,-394.822,0,0
373153.1,47.687,-393.313,0,0
374454.725,48.0292,-391.894,0,0
375756.35,48.1229,-390.19,0,0
377057.975,48.4895,-388.427,0,0
378359.6,48.6873,-387.211,0,0
379661,48.1063,-385.64,0,0
380963,48.2974,-383.267,0,0
382264,48.9445,-382.246,0,0
383566,48.2137,-381.611,0,0
384868,46.7333,-380.044,0,0
386169,45.4464,-377.656,0,0
387471,44.5135,-374.883,0,0
388773,44.0841,-371.913,0,0
390074,44.1082,-369.027,0,0
391376,44.2128,-366.49,0,0
392677,44.1951,-364.039,0,0
393979,44.173,-361.451,0,0
395280.7,44.276,-358.8,0,0
396582.325,44.6944,-356.235,0,0
397883.95,45.0567,-353.952,0,0
399185.575,45.2246,-351.727,0,0
400006.6,45.227,-350.236,0,0