Folder: ML_Dmg_Mehdi_Dataset/Accelerated corrosion test data/2025-10-02_18-00-03 (part 4)

File: sample_8.csv
Frequency (Hz),Impedance (ohms),Phase (Radians),Temperature (C),Humidity (%)
10000.0,320.357,-10854.5,0,0
11301.625,283.318,-9620.5,0,0
12603.25,260.14,-8639.75,0,0
13904.875,230.724,-7845.94,0,0
15206.5,210.765,-7180.71,0,0
16508.125,194.079,-6620.39,0,0
17809.75,180.678,-6139.35,0,0
19111.375,171.269,-5722.18,0,0
20413.0,163.099,-5363.09,0,0
21714.625,154.042,-5045.59,0,0
23016.25,146.978,-4765.92,0,0
24317.875,137.053,-4511.87,0,0
25619.5,129.886,-4282.03,0,0
26921.1,124.339,-4073.2,0,0
28222.7,121.251,-3884.78,0,0
29524.4,118.441,-3713.32,0,0
30826,115.91,-3557.62,0,0
32127.6,113.132,-3412.94,0,0
33429.2,113.943,-3279.32,0,0
34730.9,112.139,-3161.59,0,0
36032.5,108.002,-3052.35,0,0
37334.1,100.962,-2947.7,0,0
38635.7,94.3108,-2847.84,0,0
39937.4,88.6768,-2752.97,0,0
41239,86.2546,-2663.04,0,0
42540.6,83.7241,-2578.98,0,0
43842.225,82.7149,-2501.61,0,0
45143.85,79.8005,-2427.79,0,0
46445.475,77.4741,-2357.65,0,0
47747.1,75.898,-2291.22,0,0
49048.725,73.8565,-2228.67,0,0
50350.35,72.064,-2168.54,0,0
51651.975,71.1098,-2111.01,0,0
52953.6,70.6728,-2057.19,0,0
54255.225,69.3838,-2007.66,0,0
55556.85,66.1319,-1958.59,0,0
56858.475,64.0855,-1909.96,0,0
58160.1,63.2326,-1863.65,0,0
59461.7,63.2491,-1820.31,0,0
60763.3,61.6878,-1778.03,0,0
62065,61.4919,-1737.35,0,0
63366.6,61.7904,-1697.97,0,0
64668.2,63.2547,-1661.81,0,0
65969.8,62.1648,-1628.39,0,0
67271.5,60.0054,-1593.91,0,0
68573.1,59.2581,-1559.97,0,0
69874.7,58.9786,-1527.18,0,0
71176.3,59.4512,-1495.92,0,0
72478,59.9988,-1466.67,0,0
73779.6,58.8082,-1437.85,0,0
75081.2,58.3761,-1409.58,0,0
76382.825,58.4567,-1381.92,0,0
77684.45,58.2624,-1355.47,0,0
78986.075,57.8094,-1329.37,0,0
80287.7,57.8322,-1303.49,0,0
81589.325,58.2825,-1278.33,0,0
82890.95,59.4761,-1253.37,0,0
84192.575,61.4973,-1230,0,0
85494.2,62.8728,-1208.78,0,0
86795.825,62.7814,-1186.58,0,0
88097.45,64.2857,-1164.27,0,0
89399.075,66.5267,-1143.1,0,0
90700.7,69.4434,-1122.49,0,0
92002.3,74.3338,-1103.58,0,0
93303.9,77.143,-1089.46,0,0
94605.6,75.4928,-1072.9,0,0
95907.2,76.7052,-1055.63,0,0
97208.8,77.5536,-1038.28,0,0
98510.4,79.658,-1022.56,0,0
99812.1,80.0665,-1008.33,0,0
101114,80.6051,-993.741,0,0
102415,79.9767,-978.414,0,0
103717,80.3104,-963.87,0,0
105019,80.0368,-949.018,0,0
106320.175,80.1101,-934.346,0,0
107621.8,80.1618,-920.128,0,0
108923.425,80.4229,-905.504,0,0
110225.05,81.1429,-892.053,0,0
111526.675,80.8835,-878.913,0,0
112828.3,80.8217,-865.488,0,0
114129.925,80.6824,-852.345,0,0
115431.55,79.8723,-839.33,0,0
116733.175,79.2009,-825.856,0,0
118034.8,78.4966,-812.038,0,0
119336.425,78.6608,-798.181,0,0
120638.05,78.494,-784.426,0,0
121939.675,78.8067,-770.617,0,0
123241,79.3166,-756.977,0,0
124543,79.8455,-742.824,0,0
125845,81.4258,-729.25,0,0
127146,83.2702,-716.276,0,0
128448,84.4022,-704.132,0,0
129749,84.4445,-691.704,0,0
131051,84.0266,-677.414,0,0
132353,87.004,-663.101,0,0
133654,89.3455,-649.499,0,0
134956,91.9644,-636.805,0,0
136258,94.2551,-624.094,0,0
137559,96.2263,-612.744,0,0
138860.775,95.2885,-598.968,0,0
140162.4,96.9493,-583.675,0,0
141464.025,98.8411,-567.769,0,0
142765.65,102.246,-551.053,0,0
144067.275,106.095,-533.308,0,0
145368.9,113.738,-514.185,0,0
146670.525,124.586,-498.202,0,0
147972.15,135.225,-484.756,0,0
149273.775,141.744,-468.655,0,0
150575.4,157.593,-449.806,0,0
151877.025,180.659,-437.716,0,0
153178.65,196.587,-440.207,0,0
154480,203.837,-437.865,0,0
155782,213.982,-429.059,0,0
157084,223.131,-432.6,0,0
158385,222.267,-419.379,0,0
159687,241.268,-406.992,0,0
160988,248.501,-411.302,0,0
162290,256.701,-399.837,0,0
163592,273.203,-398.699,0,0
164893,278.939,-404.715,0,0
166195,281.206,-407.142,0,0
167497,270.333,-406.217,0,0
168798,262.069,-388.528,0,0
170100,264.191,-365.312,0,0
171401.375,273.035,-342.592,0,0
172703.0,287.654,-319.931,0,0
174004.625,309.305,-301.829,0,0
175306.25,330.378,-290.421,0,0
176607.875,348.335,-274.664,0,0
177909.5,374.665,-260.621,0,0
179211.125,404.165,-247.524,0,0
180512.75,436.842,-240.785,0,0
181814.375,469.688,-238.318,0,0
183116.0,505.546,-239.506,0,0
184417.625,536.783,-244.5,0,0
185719.25,568.61,-247.547,0,0
187021,612.655,-253.256,0,0
188322,654.665,-269.852,0,0
189624,694.802,-298.734,0,0
190926,727.31,-319.551,0,0
192227,780.268,-349.516,0,0
193529,821.87,-402.443,0,0
194831,865.28,-469.295,0,0
196132,879.302,-557.167,0,0
197434,867.86,-651.088,0,0
198735,821.244,-727.741,0,0
200037,766.77,-785.772,0,0
201339,696.836,-815.022,0,0
202640.35,642.253,-829.625,0,0
203941.975,587.037,-828.509,0,0
205243.6,543.91,-818.067,0,0
206545.225,507.644,-800.698,0,0
207846.85,489.157,-774.762,0,0
209148.475,481.59,-759.699,0,0
210450.1,476.755,-745.542,0,0
211751.725,480.435,-736.717,0,0
213053.35,488.135,-739.361,0,0
214354.975,485.621,-752.628,0,0
215656.6,473.226,-760.361,0,0
216958.225,461.35,-758.061,0,0
218259.85,462.957,-754.142,0,0
219561,467.845,-761.904,0,0
220863,469.746,-776.591,0,0
222165,464.979,-798.983,0,0
223466,448.793,-821.257,0,0
224768,426.626,-837.542,0,0
226070,400.465,-850.181,0,0
227371,371.066,-855.587,0,0
228673,342.824,-853.862,0,0
229974,319.5,-848.676,0,0
231276,296.646,-843.459,0,0
232578,274.044,-835.244,0,0
233879,252.854,-823.116,0,0
235180.95,234.527,-808.095,0,0
236482.575,221.224,-790.463,0,0
237784.2,213.097,-774.658,0,0
239085.825,206.934,-761.198,0,0
240387.45,201.749,-750.956,0,0
241689.075,194.544,-741.172,0,0
242990.7,187.204,-729.972,0,0
244292.325,181.894,-717.705,0,0
245593.95,177.195,-706.641,0,0
246895.575,173.439,-693.727,0,0
248197.2,172.124,-681.882,0,0
249498.825,170.787,-670.612,0,0
250800,171.269,-657.858,0,0
252102,175.929,-646.477,0,0
253404,182.074,-640.353,0,0
254705,184.212,-635.285,0,0
256007,187.519,-628.076,0,0
257309,193.057,-623.196,0,0
258610,198.634,-619.707,0,0
259912,204.256,-618.565,0,0
261213,208.77,-619.088,0,0
262515,211.01,-620.965,0,0
263817,211.84,-620.816,0,0
265118,213.929,-619,0,0
266420,220.34,-616.934,0,0
267721.55,231.145,-620.352,0,0
269023.175,240.799,-632.993,0,0
270324.8,242.676,-651.905,0,0
271626.425,235.589,-671.221,0,0
272928.05,219.885,-688.271,0,0
274229.675,196.873,-696.991,0,0
275531.3,173.773,-696.15,0,0
276832.925,155.439,-688.115,0,0
278134.55,141.974,-678.738,0,0
279436.175,131.103,-668.324,0,0
280737.8,124.028,-656.277,0,0
282039.425,120.852,-646.676,0,0
283341,118.717,-638.573,0,0
284643,117.477,-631.956,0,0
285944,116.995,-626.542,0,0
287246,118.011,-623.844,0,0
288548,115.948,-625.085,0,0
289849,110.092,-625.168,0,0
291151,103.167,-622.906,0,0
292452,95.9546,-620.015,0,0
293754,87.8649,-614.652,0,0
295056,81.5606,-607.259,0,0
296357,76.7444,-599.716,0,0
297659,72.9774,-592.023,0,0
298960.525,70.1739,-584.222,0,0
300262.15,68.3957,-576.568,0,0
301563.775,67.5324,-569.3,0,0
302865.4,67.8782,-562.683,0,0
304167.025,68.4683,-557.399,0,0
305468.65,68.9834,-552.894,0,0
306770.275,69.3934,-548.868,0,0
308071.9,69.7357,-545.609,0,0
309373.525,69.5507,-543.202,0,0
310675.15,68.0689,-540.626,0,0
311976.775,66.7896,-537.695,0,0
313278.4,65.0042,-534.637,0,0
314580,63.0628,-531.3,0,0
315882,61.3788,-527.124,0,0
317183,60.3631,-522.867,0,0
318485,59.914,-519.101,0,0
319787,59.6288,-515.911,0,0
321088,59.098,-513.347,0,0
322390,57.9493,-511.052,0,0
323691,56.411,-508.624,0,0
324993,54.343,-506.03,0,0
326295,51.9963,-502.645,0,0
327596,50.0288,-498.994,0,0
328898,48.1918,-495.033,0,0
330200,46.6907,-490.915,0,0
331501.125,45.3989,-486.744,0,0
332802.75,44.3773,-482.431,0,0
334104.375,43.8425,-478.164,0,0
335406.0,43.6655,-473.936,0,0
336707.625,43.7083,-470.367,0,0
338009.25,43.6412,-467.074,0,0
339310.875,43.4351,-464.058,0,0
340612.5,42.9111,-461.065,0,0
341914.125,42.26,-457.959,0,0
343215.75,41.501,-454.688,0,0
344517.375,40.8166,-451.103,0,0
345819.0,40.3756,-447.374,0,0
347121,40.2142,-443.57,0,0
348422,40.3861,-439.978,0,0
349724,40.7174,-436.497,0,0
351025,41.1421,-433.352,0,0
352327,41.5742,-430.36,0,0
353629,41.9435,-427.492,0,0
354930,42.3745,-424.731,0,0
356232,42.754,-422.215,0,0
357534,42.7768,-419.821,0,0
358835,42.7102,-417.261,0,0
360137,42.6353,-414.418,0,0
361438,42.6518,-411.575,0,0
362740.1,42.8283,-408.527,0,0
364041.725,43.3322,-405.462,0,0
365343.35,44.1353,-402.506,0,0
366644.975,45.1466,-399.907,0,0
367946.6,46.0939,-397.691,0,0
369248.225,46.9718,-395.445,0,0
370549.85,48.1717,-393.381,0,0
371851.475,49.4116,-392.007,0,0
373153.1,50.0114,-391.108,0,0
374454.725,49.9009,-390.087,0,0
375756.35,49.6233,-388.504,0,0
377057.975,49.6828,-386.804,0,0
378359.6,49.6413,-385.52,0,0
379661,49.0148,-383.807,0,0
380963,49.4593,-381.661,0,0
382264,49.8071,-381.285,0,0
383566,48.1529,-380.53,0,0
384868,46.4444,-378.432,0,0
386169,45.2486,-375.673,0,0
387471,44.5109,-372.703,0,0
388773,44.224,-369.712,0,0
390074,44.3661,-366.908,0,0
391376,44.5232,-364.453,0,0
392677,44.5277,-362.072,0,0
393979,44.4997,-359.594,0,0
395280.7,44.5075,-356.997,0,0
396582.325,44.7359,-354.403,0,0
397883.95,45.1077,-352.008,0,0
399185.575,45.3229,-349.664,0,0
400006.6,45.4277,-348.213,0,0