Folder: ML_Dmg_Mehdi_Dataset/Accelerated corrosion test data/2025-10-10_06-00-03

Note: README.md
# ML_Dmg_Mehdi_Dataset

File: sample_1.csv
Frequency (Hz),Impedance (ohms),Phase (Radians),Temperature (C),Humidity (%)
10000.0,240.477,-12196.7,0,0
11301.625,214.177,-10802.8,0,0
12603.25,195.037,-9704.04,0,0
13904.875,181.237,-8781.32,0,0
15206.5,182.784,-8048.83,0,0
16508.125,155.642,-7423.82,0,0
17809.75,146.681,-6889.45,0,0
19111.375,135.711,-6420.46,0,0
20413.0,155.394,-5978.43,0,0
21714.625,138.354,-5662.9,0,0
23016.25,122.871,-5358.66,0,0
24317.875,112.709,-5066.19,0,0
25619.5,105.092,-4802.31,0,0
26921.1,114.285,-4554.67,0,0
28222.7,110.769,-4350,0,0
29524.4,107.53,-4183.93,0,0
30826,101.085,-3997.35,0,0
32127.6,98.2857,-3838.49,0,0
33429.2,88.7803,-3695.72,0,0
34730.9,81.9845,-3553.74,0,0
36032.5,77.9292,-3422.94,0,0
37334.1,75.3016,-3300.7,0,0
38635.7,73.0339,-3187.25,0,0
39937.4,71.2087,-3080.38,0,0
41239,72.3199,-2981.64,0,0
42540.6,70.8281,-2889.56,0,0
43842.225,68.0745,-2802.56,0,0
45143.85,68.7009,-2721.22,0,0
46445.475,65.6529,-2644.97,0,0
47747.1,63.9536,-2571.24,0,0
49048.725,61.5006,-2500.99,0,0
50350.35,59.9275,-2434.55,0,0
51651.975,58.7474,-2370.96,0,0
52953.6,57.7768,-2310.12,0,0
54255.225,56.925,-2253.06,0,0
55556.85,55.9227,-2197.69,0,0
56858.475,54.9888,-2144.7,0,0
58160.1,54.7077,-2094.21,0,0
59461.7,54.6329,-2046.25,0,0
60763.3,54.7066,-2000.24,0,0
62065,53.3158,-1956.39,0,0
63366.6,52.6233,-1912.97,0,0
64668.2,53.1933,-1870.88,0,0
65969.8,55.3025,-1833.01,0,0
67271.5,53.8195,-1796.53,0,0
68573.1,53.4827,-1760.97,0,0
69874.7,52.2702,-1727.08,0,0
71176.3,50.4972,-1692.56,0,0
72478,48.71,-1658.85,0,0
73779.6,48.2528,-1625.38,0,0
75081.2,48.6483,-1593.21,0,0
76382.825,49.484,-1562.13,0,0
77684.45,50.342,-1532.88,0,0
78986.075,52.005,-1505.2,0,0
80287.7,51.2789,-1478.83,0,0
81589.325,50.8598,-1450.97,0,0
82890.95,51.3851,-1424.17,0,0
84192.575,52.8019,-1397.97,0,0
85494.2,55.1248,-1373.42,0,0
86795.825,56.1473,-1350.23,0,0
88097.45,56.3566,-1327.1,0,0
89399.075,58.1334,-1302.45,0,0
90700.7,61.6567,-1279.07,0,0
92002.3,67.969,-1258.01,0,0
93303.9,74.9609,-1241.14,0,0
94605.6,73.6999,-1233.87,0,0
95907.2,67.1342,-1215.43,0,0
97208.8,64.8032,-1194.9,0,0
98510.4,64.5454,-1174.36,0,0
99812.1,63.3188,-1154.48,0,0
101114,63.6109,-1134.54,0,0
102415,63.2117,-1113.09,0,0
103717,68.3356,-1091.77,0,0
105019,75.0698,-1074.31,0,0
106320.175,81.4098,-1058.08,0,0
107621.8,87.9746,-1045.67,0,0
108923.425,92.3877,-1034.83,0,0
110225.05,93.934,-1026.57,0,0
111526.675,94.5109,-1014.03,0,0
112828.3,96.264,-1004.47,0,0
114129.925,95.5443,-996.723,0,0
115431.55,91.9151,-987.281,0,0
116733.175,86.914,-974.939,0,0
118034.8,82.8123,-960.287,0,0
119336.425,81.2935,-944.749,0,0
120638.05,81.8305,-930.642,0,0
121939.675,80.6861,-918.031,0,0
123241,79.1666,-903.723,0,0
124543,78.9607,-888.578,0,0
125845,79.7133,-873.949,0,0
127146,81.124,-859.585,0,0
128448,82.9833,-845.227,0,0
129749,85.4522,-830.866,0,0
131051,90.5084,-817.745,0,0
132353,94.6285,-807.351,0,0
133654,97.5165,-796.742,0,0
134956,99.9945,-786.386,0,0
136258,102.986,-775.216,0,0
137559,107.898,-765.557,0,0
138860.775,110.096,-759.543,0,0
140162.4,109.888,-751.213,0,0
141464.025,109.587,-740.855,0,0
142765.65,110.473,-729.9,0,0
144067.275,111.691,-718.612,0,0
145368.9,114.121,-707.433,0,0
146670.525,116.953,-697.057,0,0
147972.15,119.33,-688.077,0,0
149273.775,122.052,-677.722,0,0
150575.4,123.163,-669.888,0,0
151877.025,122.134,-658.206,0,0
153178.65,122.092,-643.452,0,0
154480,125.99,-626.985,0,0
155782,133.569,-610.338,0,0
157084,145.161,-595.435,0,0
158385,158.044,-586.01,0,0
159687,168.167,-575.36,0,0
160988,185.964,-565.073,0,0
162290,204.174,-565.381,0,0
163592,216.466,-566.598,0,0
164893,228.045,-569.179,0,0
166195,241.144,-575.19,0,0
167497,246.979,-587.303,0,0
168798,244.822,-598.769,0,0
170100,235.802,-604.821,0,0
171401.375,228.379,-602.437,0,0
172703.0,222.747,-598.4,0,0
174004.625,219.384,-592.889,0,0
175306.25,218.235,-586.887,0,0
176607.875,218.909,-583.645,0,0
177909.5,217.475,-580.535,0,0
179211.125,213.426,-578.676,0,0
180512.75,207.776,-575.107,0,0
181814.375,200.138,-567.578,0,0
183116.0,193.569,-557.966,0,0
184417.625,187.262,-543.648,0,0
185719.25,185.799,-526.673,0,0
187021,187.961,-511.066,0,0
188322,191.434,-496.609,0,0
189624,194.52,-481.949,0,0
190926,199.537,-466.331,0,0
192227,205.76,-449.743,0,0
193529,214.88,-433.385,0,0
194831,224.874,-416.926,0,0
196132,237.652,-399.577,0,0
197434,253.98,-381.697,0,0
198735,274.349,-365.619,0,0
200037,295.306,-351.746,0,0
201339,320.863,-334.815,0,0
202640.35,356.347,-319.918,0,0
203941.975,398.817,-313.833,0,0
205243.6,450.843,-321.183,0,0
206545.225,494.804,-349.152,0,0
207846.85,525.085,-388.392,0,0
209148.475,538.615,-428.248,0,0
210450.1,537.426,-463.733,0,0
211751.725,528.063,-483.427,0,0
213053.35,525.871,-487.92,0,0
214354.975,536.945,-497.03,0,0
215656.6,548.548,-510.916,0,0
216958.225,555.854,-527.343,0,0
218259.85,569.624,-540.509,0,0
219561,583.889,-559.522,0,0
220863,601.675,-584.356,0,0
222165,619.538,-620.771,0,0
223466,624.588,-669.412,0,0
224768,615.269,-717.848,0,0
226070,596.442,-763.785,0,0
227371,565.098,-808.157,0,0
228673,520.813,-840.679,0,0
229974,473.612,-856.435,0,0
231276,430.701,-859.651,0,0
232578,395.734,-855.615,0,0
233879,368.095,-850.631,0,0
235180.95,342.598,-846.155,0,0
236482.575,318.128,-840.551,0,0
237784.2,295.147,-832.645,0,0
239085.825,274.723,-824.275,0,0
240387.45,255.108,-813.729,0,0
241689.075,238.09,-802.42,0,0
242990.7,223.658,-790.255,0,0
244292.325,210.973,-778.841,0,0
245593.95,198.992,-767.911,0,0
246895.575,187.555,-756.365,0,0
248197.2,177.548,-743.789,0,0
249498.825,169.135,-731.33,0,0
250800,162.072,-719.235,0,0
252102,155.752,-707.14,0,0
253404,150.189,-694.776,0,0
254705,145.999,-681.848,0,0
256007,143.945,-669.552,0,0
257309,142.533,-658,0,0
258610,141.957,-646.237,0,0
259912,144.014,-634.51,0,0
261213,148.133,-624.824,0,0
262515,153.131,-617.577,0,0
263817,158.408,-612.207,0,0
265118,164.328,-608.77,0,0
266420,171.043,-609.362,0,0
267721.55,173.891,-615.48,0,0
269023.175,169.099,-622.14,0,0
270324.8,159.246,-623.477,0,0
271626.425,149.491,-618.832,0,0
272928.05,142.828,-610.474,0,0
274229.675,140.221,-601.443,0,0
275531.3,139.787,-593.733,0,0
276832.925,140.466,-587.065,0,0
278134.55,142.767,-581.959,0,0
279436.175,144.669,-579.058,0,0
280737.8,145.49,-577.694,0,0
282039.425,144.635,-577.194,0,0
283341,141.637,-575.547,0,0
284643,138.275,-572.357,0,0
285944,135.407,-568.397,0,0
287246,131.778,-563.304,0,0
288548,129.526,-555.432,0,0
289849,131.872,-547.879,0,0
291151,134.864,-543.998,0,0
292452,136.23,-541.671,0,0
293754,134.98,-539.137,0,0
295056,133.596,-532.738,0,0
296357,136.353,-525.305,0,0
297659,141.162,-520.391,0,0
298960.525,146.169,-517.019,0,0
300262.15,151.526,-514.856,0,0
301563.775,157.161,-513.31,0,0
302865.4,163.926,-513.889,0,0
304167.025,169.627,-517.417,0,0
305468.65,173.508,-521.82,0,0
306770.275,176.681,-527.064,0,0
308071.9,177.908,-534.193,0,0
309373.525,176.249,-541.095,0,0
310675.15,173.824,-546.779,0,0
311976.775,170.046,-553.247,0,0
313278.4,163.361,-558.961,0,0
314580,155.496,-561.939,0,0
315882,147.844,-563.261,0,0
317183,140.287,-563.805,0,0
318485,132.347,-563.024,0,0
319787,124.607,-560.83,0,0
321088,117.414,-557.199,0,0
322390,111.44,-552.656,0,0
323691,106.427,-547.288,0,0
324993,103.357,-541.66,0,0
326295,101.55,-537.14,0,0
327596,100.116,-533.29,0,0
328898,98.8725,-530.3,0,0
330200,97.3949,-528.476,0,0
331501.125,94.9613,-526.884,0,0
332802.75,91.8912,-525.152,0,0
334104.375,88.495,-523.023,0,0
335406.0,84.7622,-520.352,0,0
336707.625,81.0465,-517.114,0,0
338009.25,77.6936,-513.41,0,0
339310.875,74.6808,-509.441,0,0
340612.5,71.9052,-505.224,0,0
341914.125,69.6432,-500.978,0,0
343215.75,67.4991,-496.896,0,0
344517.375,65.4702,-492.893,0,0
345819.0,63.3294,-488.631,0,0
347121,61.5505,-484.107,0,0
348422,60.0767,-479.402,0,0
349724,59.0883,-474.737,0,0
351025,58.4141,-470.259,0,0
352327,58.0098,-465.973,0,0
353629,57.6285,-461.957,0,0
354930,57.2408,-457.997,0,0
356232,56.9346,-453.875,0,0
357534,57.0151,-449.857,0,0
358835,57.2079,-446.173,0,0
360137,57.3839,-442.493,0,0
361438,57.6647,-438.983,0,0
362740.1,57.9546,-435.572,0,0
364041.725,58.289,-432.088,0,0
365343.35,58.7161,-428.681,0,0
366644.975,59.1066,-425.261,0,0
367946.6,59.4569,-421.704,0,0
369248.225,59.9222,-417.378,0,0
370549.85,61.7315,-412.654,0,0
371851.475,64.8044,-408.867,0,0
373153.1,68.2588,-406.36,0,0
374454.725,71.6613,-404.844,0,0
375756.35,74.4682,-404.403,0,0
377057.975,76.5168,-404.246,0,0
378359.6,78.3253,-404.1,0,0
379661,79.6927,-404.256,0,0
380963,81.204,-404.187,0,0
382264,83.0108,-405.59,0,0
383566,82.9706,-407.992,0,0
384868,81.3617,-409.972,0,0
386169,78.6747,-410.818,0,0
387471,75.5268,-410.538,0,0
388773,72.6937,-408.863,0,0
390074,70.9025,-406.744,0,0
391376,69.5633,-405.052,0,0
392677,68.0006,-403.687,0,0
393979,65.8755,-402.157,0,0
395280.7,63.4585,-399.896,0,0
396582.325,61.3717,-396.84,0,0
397883.95,59.937,-393.514,0,0
399185.575,58.7831,-390.142,0,0
400006.6,58.1716,-387.985,0,0

File: sample_2.csv
Frequency (Hz),Impedance (ohms),Phase (Radians),Temperature (C),Humidity (%)
10000.0,232.151,-11407.2,0,0
11301.625,206.116,-10103.5,0,0
12603.25,185.709,-9070.51,0,0
13904.875,186.189,-8227.83,0,0
15206.5,165.736,-7536.89,0,0
16508.125,145.03,-6944.07,0,0
17809.75,134.526,-6437.47,0,0
19111.375,130.104,-5998.85,0,0
20413.0,119.593,-5616.74,0,0
21714.625,128.198,-5287.91,0,0
23016.25,113.467,-4992.45,0,0
24317.875,103.911,-4727.47,0,0
25619.5,98.3288,-4484.33,0,0
26921.1,95.8064,-4266.35,0,0
28222.7,90.9008,-4067.77,0,0
29524.4,94.098,-3883.83,0,0
30826,88.4135,-3729.96,0,0
32127.6,82.8273,-3576.55,0,0
33429.2,80.489,-3438.19,0,0
34730.9,76.3853,-3307.49,0,0
36032.5,73.8168,-3186.58,0,0
37334.1,71.6244,-3073,0,0
38635.7,69.3533,-2968.32,0,0
39937.4,67.4226,-2869.58,0,0
41239,66.4251,-2776.74,0,0
42540.6,65.0087,-2690.27,0,0
43842.225,63.5918,-2608.54,0,0
45143.85,62.5424,-2530.89,0,0
46445.475,61.7132,-2458.79,0,0
47747.1,61.1459,-2389.45,0,0
49048.725,61.0322,-2325.75,0,0
50350.35,58.2821,-2263.71,0,0
51651.975,57.1628,-2204.74,0,0
52953.6,55.4175,-2147.49,0,0
54255.225,54.6642,-2092.95,0,0
55556.85,54.3549,-2041.03,0,0
56858.475,54.2828,-1991.48,0,0
58160.1,54.474,-1944.16,0,0
59461.7,54.98,-1898.3,0,0
60763.3,56.5174,-1855.8,0,0
62065,59.2307,-1817.52,0,0
63366.6,56.009,-1780.9,0,0
64668.2,53.4407,-1742.78,0,0
65969.8,51.0027,-1703.54,0,0
67271.5,51.5574,-1666.37,0,0
68573.1,53.6549,-1632.48,0,0
69874.7,56.2469,-1602.13,0,0
71176.3,52.8924,-1574.1,0,0
72478,48.2722,-1543.75,0,0
73779.6,45.5678,-1510.9,0,0
75081.2,45.5982,-1478.69,0,0
76382.825,47.1778,-1448.3,0,0
77684.45,49.8763,-1420.05,0,0
78986.075,53.3124,-1395.76,0,0
80287.7,52.1593,-1374.39,0,0
81589.325,49.5895,-1349.34,0,0
82890.95,48.4232,-1323.65,0,0
84192.575,49.1513,-1298.91,0,0
85494.2,49.8795,-1275.47,0,0
86795.825,50.9244,-1253.55,0,0
88097.45,51.4761,-1232.33,0,0
89399.075,51.5026,-1210.81,0,0
90700.7,51.7868,-1190.71,0,0
92002.3,53.1189,-1169.64,0,0
93303.9,55.7479,-1150.82,0,0
94605.6,55.7302,-1134.09,0,0
95907.2,54.7723,-1114.56,0,0
97208.8,58.3349,-1097.51,0,0
98510.4,58.0916,-1083.77,0,0
99812.1,53.8948,-1069.71,0,0
101114,50.9118,-1051.88,0,0
102415,47.4631,-1031.72,0,0
103717,46.3919,-1010.95,0,0
105019,49.6533,-990.383,0,0
106320.175,54.6308,-973.489,0,0
107621.8,57.8296,-961.274,0,0
108923.425,56.5985,-949.28,0,0
110225.05,53.3745,-934.146,0,0
111526.675,52.267,-916.514,0,0
112828.3,52.7021,-899.041,0,0
114129.925,54.3868,-881.993,0,0
115431.55,57.0839,-865.635,0,0
116733.175,60.5296,-850.31,0,0
118034.8,64.5312,-836.442,0,0
119336.425,68.1512,-824.504,0,0
120638.05,70.2992,-814.205,0,0
121939.675,69.5172,-802.981,0,0
123241,68.5337,-790.056,0,0
124543,67.931,-776.167,0,0
125845,68.0744,-761.204,0,0
127146,69.667,-745.963,0,0
128448,72.5235,-731.69,0,0
129749,75.2559,-718.629,0,0
131051,77.6798,-705.78,0,0
132353,79.2677,-693.429,0,0
133654,80.3925,-679.582,0,0
134956,81.8957,-665.384,0,0
136258,84.3246,-650.318,0,0
137559,87.4984,-635.168,0,0
138860.775,91.0207,-620.222,0,0
140162.4,94.5497,-604.173,0,0
141464.025,100.126,-585.804,0,0
142765.65,109.572,-568.067,0,0
144067.275,120.737,-553.244,0,0
145368.9,132.053,-538.86,0,0
146670.525,144.719,-525.147,0,0
147972.15,160.33,-511.683,0,0
149273.775,179.956,-499.633,0,0
150575.4,206.308,-496.195,0,0
151877.025,228.121,-507.353,0,0
153178.65,235.01,-521.899,0,0
154480,232.948,-532.289,0,0
155782,228.127,-534.555,0,0
157084,222.524,-533.36,0,0
158385,218.487,-525.634,0,0
159687,219.187,-518.485,0,0
160988,220.021,-512.632,0,0
162290,225.316,-507.269,0,0
163592,223.737,-512.147,0,0
164893,211.414,-508.913,0,0
166195,199.206,-496.525,0,0
167497,191.406,-476.31,0,0
168798,190.141,-453.468,0,0
170100,193.498,-432.41,0,0
171401.375,197.252,-410.228,0,0
172703.0,206.141,-386.493,0,0
174004.625,218.944,-361.691,0,0
175306.25,239.081,-337.354,0,0
176607.875,264.977,-321.424,0,0
177909.5,291.933,-310.045,0,0
179211.125,314.266,-311.344,0,0
180512.75,323.717,-308.805,0,0
181814.375,329.371,-293.412,0,0
183116.0,347.253,-271.272,0,0
184417.625,372.884,-247.876,0,0
185719.25,410.616,-228.054,0,0
187021,451.136,-219.847,0,0
188322,494.288,-213.054,0,0
189624,536.203,-214.461,0,0
190926,581.518,-212.563,0,0
192227,640.025,-214.261,0,0
193529,711.339,-234.184,0,0
194831,777.18,-281.782,0,0
196132,828.53,-344.611,0,0
197434,864.28,-412.287,0,0
198735,893.179,-491.293,0,0
200037,898.356,-574.275,0,0
201339,888.547,-662.062,0,0
202640.35,852.005,-742.576,0,0
203941.975,796.278,-803.527,0,0
205243.6,742.411,-844.959,0,0
206545.225,680.435,-871.879,0,0
207846.85,628.057,-879.334,0,0
209148.475,589.832,-883.441,0,0
210450.1,550.687,-894.574,0,0
211751.725,504.56,-895.938,0,0
213053.35,466.319,-884.719,0,0
214354.975,434.69,-870.504,0,0
215656.6,410.528,-854.811,0,0
216958.225,391.213,-838.414,0,0
218259.85,377.501,-822.238,0,0
219561,368.341,-808.079,0,0
220863,362.203,-796.959,0,0
222165,358.72,-787.119,0,0
223466,358.046,-782.36,0,0
224768,355.28,-781.509,0,0
226070,350.462,-780.322,0,0
227371,348.411,-780.017,0,0
228673,347.042,-784.925,0,0
229974,340.322,-794.978,0,0
231276,326.708,-803.535,0,0
232578,310.308,-808.05,0,0
233879,292.932,-809.303,0,0
235180.95,275.903,-807.857,0,0
236482.575,259.216,-804.782,0,0
237784.2,242.345,-799.843,0,0
239085.825,226.484,-792.343,0,0
240387.45,212.315,-782.782,0,0
241689.075,200.738,-772.713,0,0
242990.7,190.911,-762.55,0,0
244292.325,182.328,-754.056,0,0
245593.95,173.564,-746.441,0,0
246895.575,162.661,-739.604,0,0
248197.2,149.749,-728.938,0,0
249498.825,138.944,-715.342,0,0
250800,130.262,-700.039,0,0
252102,124.564,-683.148,0,0
253404,122.149,-667.03,0,0
254705,121.165,-651.708,0,0
256007,122.009,-636.021,0,0
257309,126.203,-621.449,0,0
258610,131.846,-609.042,0,0
259912,139.009,-597.966,0,0
261213,147.936,-589.476,0,0
262515,157.316,-584.017,0,0
263817,166.289,-581.183,0,0
265118,174.237,-581.375,0,0
266420,178.84,-583.157,0,0
267721.55,182.266,-584.122,0,0
269023.175,183.8,-585.67,0,0
270324.8,183.992,-584.498,0,0
271626.425,186.727,-581.221,0,0
272928.05,192.594,-578.934,0,0
274229.675,202.174,-579.375,0,0
275531.3,213.768,-588.053,0,0
276832.925,217.648,-606.055,0,0
278134.55,209.314,-622.194,0,0
279436.175,196.939,-631.555,0,0
280737.8,183.23,-636.407,0,0
282039.425,170.207,-638.112,0,0
283341,155.155,-636.611,0,0
284643,144.148,-630.321,0,0
285944,132.154,-625.838,0,0
287246,119.117,-614.492,0,0
288548,112.126,-597.727,0,0
289849,114.017,-578.776,0,0
291151,125.814,-566.149,0,0
292452,140.457,-564.913,0,0
293754,146.854,-573.996,0,0
295056,143.612,-577.983,0,0
296357,145.912,-578.029,0,0
297659,146.239,-587.651,0,0
298960.525,137.388,-593.639,0,0
300262.15,128.135,-594.813,0,0
301563.775,119.35,-591.907,0,0
302865.4,115.269,-588.002,0,0
304167.025,111.693,-587.909,0,0
305468.65,104.559,-588.429,0,0
306770.275,95.675,-585.993,0,0
308071.9,87.654,-580.727,0,0
309373.525,81.6064,-574.454,0,0
310675.15,76.6491,-568.38,0,0
311976.775,72.1114,-561.955,0,0
313278.4,68.618,-555.215,0,0
314580,65.9868,-548.966,0,0
315882,63.2949,-542.795,0,0
317183,61.2379,-536.316,0,0
318485,60.0052,-530.086,0,0
319787,59.1998,-524.516,0,0
321088,58.1885,-519.129,0,0
322390,57.2801,-513.598,0,0
323691,56.5283,-507.939,0,0
324993,56.4397,-501.434,0,0
326295,58.4943,-495.018,0,0
327596,61.8125,-491.061,0,0
328898,64.0356,-488.837,0,0
330200,65.702,-487.124,0,0
331501.125,66.6292,-486.395,0,0
332802.75,65.9701,-486.251,0,0
334104.375,63.5093,-485.133,0,0
335406.0,61.02,-482.396,0,0
336707.625,59.0877,-479.054,0,0
338009.25,57.3667,-475.233,0,0
339310.875,56.0492,-471.319,0,0
340612.5,55.0601,-467.003,0,0
341914.125,54.5608,-462.718,0,0
343215.75,54.3909,-458.488,0,0
344517.375,54.6305,-454.104,0,0
345819.0,55.3285,-449.941,0,0
347121,56.4831,-446.118,0,0
348422,57.8058,-442.65,0,0
349724,59.4258,-439.605,0,0
351025,61.1065,-437.071,0,0
352327,62.4698,-435.105,0,0
353629,63.5272,-433.033,0,0
354930,64.6814,-430.952,0,0
356232,65.9332,-429.05,0,0
357534,67.4934,-427.417,0,0
358835,69.2488,-426.292,0,0
360137,70.6727,-426.204,0,0
361438,71.2072,-426.348,0,0
362740.1,71.0911,-426.602,0,0
364041.725,70.331,-426.42,0,0
365343.35,69.3317,-425.964,0,0
366644.975,68.0526,-425.006,0,0
367946.6,67.1737,-423.378,0,0
369248.225,66.937,-421.996,0,0
370549.85,66.6421,-421.471,0,0
371851.475,65.3248,-420.958,0,0
373153.1,64.0122,-419.771,0,0
374454.725,62.9862,-418.642,0,0
375756.35,61.4908,-417.751,0,0
377057.975,59.7887,-416.363,0,0
378359.6,58.2485,-415.112,0,0
379661,55.5951,-413.816,0,0
380963,53.1507,-410.282,0,0
382264,53.0847,-407.518,0,0
383566,51.9822,-406.226,0,0
384868,49.9502,-404.296,0,0
386169,47.8465,-401.523,0,0
387471,46.2828,-398.194,0,0
388773,45.2257,-394.709,0,0
390074,44.8627,-391.216,0,0
391376,45.0329,-388.507,0,0
392677,44.5254,-386.68,0,0
393979,42.9834,-384.296,0,0
395280.7,41.4207,-380.87,0,0
396582.325,40.5894,-376.779,0,0
397883.95,40.581,-372.739,0,0
399185.575,41.0385,-368.997,0,0
400006.6,41.4924,-366.795,0,0