Folder: ML_Dmg_Mehdi_Dataset/Accelerated corrosion test data/2025-10-15_15-08-31

Note: README.md
# ML_Dmg_Mehdi_Dataset

File: sample_1.csv
Frequency (Hz),Impedance (ohms),Phase (Radians),Temperature (C),Humidity (%)
10000.0,240.003,-12187.3,0,0
11301.625,215.696,-10794.1,0,0
12603.25,202.909,-9695.67,0,0
13904.875,183.273,-8773.5,0,0
15206.5,187.367,-8042.09,0,0
16508.125,161.642,-7417.73,0,0
17809.75,147.422,-6883.08,0,0
19111.375,136.028,-6415.6,0,0
20413.0,157.367,-5973.16,0,0
21714.625,137.573,-5656.25,0,0
23016.25,122.723,-5353.86,0,0
24317.875,111.973,-5062.16,0,0
25619.5,105.219,-4798.22,0,0
26921.1,113.683,-4549.68,0,0
28222.7,110.305,-4346.03,0,0
29524.4,106.799,-4180.11,0,0
30826,100.105,-3993.44,0,0
32127.6,97.3222,-3835.62,0,0
33429.2,88.4799,-3692.2,0,0
34730.9,84.2801,-3550.51,0,0
36032.5,78.2605,-3419.69,0,0
37334.1,78.0422,-3297.51,0,0
38635.7,72.6569,-3184.14,0,0
39937.4,70.918,-3077.69,0,0
41239,72.036,-2979.09,0,0
42540.6,70.4006,-2886.82,0,0
43842.225,68.0463,-2800.17,0,0
45143.85,68.3058,-2718.82,0,0
46445.475,65.0808,-2642.22,0,0
47747.1,63.8426,-2569.05,0,0
49048.725,61.6004,-2498.73,0,0
50350.35,59.504,-2432.3,0,0
51651.975,58.5208,-2368.8,0,0
52953.6,57.5364,-2307.94,0,0
54255.225,57.4653,-2251.09,0,0
55556.85,55.6735,-2195.61,0,0
56858.475,54.8116,-2142.73,0,0
58160.1,54.6334,-2092.23,0,0
59461.7,54.2022,-2044.25,0,0
60763.3,54.4153,-1998.45,0,0
62065,53.0527,-1954.65,0,0
63366.6,52.3994,-1911.02,0,0
64668.2,53.0321,-1869.06,0,0
65969.8,55.0405,-1831.42,0,0
67271.5,53.9099,-1794.74,0,0
68573.1,53.1157,-1759.17,0,0
69874.7,52.0655,-1725.35,0,0
71176.3,50.3719,-1690.85,0,0
72478,48.3146,-1657.17,0,0
73779.6,48.0076,-1623.81,0,0
75081.2,48.4709,-1591.57,0,0
76382.825,49.2046,-1560.63,0,0
77684.45,50.3226,-1531.19,0,0
78986.075,51.7888,-1503.8,0,0
80287.7,51.1572,-1477.32,0,0
81589.325,50.5516,-1449.47,0,0
82890.95,51.2626,-1422.61,0,0
84192.575,52.8016,-1396.61,0,0
85494.2,55.061,-1371.97,0,0
86795.825,56.0255,-1348.98,0,0
88097.45,56.3066,-1325.66,0,0
89399.075,58.0323,-1300.99,0,0
90700.7,61.3668,-1277.82,0,0
92002.3,67.8059,-1256.83,0,0
93303.9,75.3145,-1240.16,0,0
94605.6,73.6903,-1233.14,0,0
95907.2,66.6518,-1214.22,0,0
97208.8,64.6067,-1193.59,0,0
98510.4,64.1273,-1172.87,0,0
99812.1,63.2821,-1153.37,0,0
101114,63.2617,-1133.33,0,0
102415,63.4827,-1111.76,0,0
103717,68.2944,-1090.49,0,0
105019,75.2967,-1073.25,0,0
106320.175,81.707,-1057.01,0,0
107621.8,88.2045,-1044.98,0,0
108923.425,92.34,-1034.55,0,0
110225.05,93.8776,-1026.37,0,0
111526.675,93.6675,-1013.63,0,0
112828.3,95.7113,-1004.19,0,0
114129.925,94.1447,-996.13,0,0
115431.55,90.6542,-986.025,0,0
116733.175,86.1456,-973.59,0,0
118034.8,82.14,-958.984,0,0
119336.425,80.7304,-943.295,0,0
120638.05,81.3444,-928.893,0,0
121939.675,80.4129,-916.497,0,0
123241,79.0535,-902.201,0,0
124543,78.9139,-887.179,0,0
125845,79.7788,-872.484,0,0
127146,80.979,-858.161,0,0
128448,83.212,-843.771,0,0
129749,85.7988,-829.886,0,0
131051,90.8379,-816.771,0,0
132353,94.9957,-806.659,0,0
133654,97.5777,-796.322,0,0
134956,100.207,-785.806,0,0
136258,102.876,-775.068,0,0
137559,107.495,-765.222,0,0
138860.775,109.602,-758.837,0,0
140162.4,109.286,-750.142,0,0
141464.025,109.258,-739.897,0,0
142765.65,109.915,-729.023,0,0
144067.275,111.37,-717.649,0,0
145368.9,113.954,-706.555,0,0
146670.525,116.608,-696.629,0,0
147972.15,118.787,-687.577,0,0
149273.775,120.477,-676.438,0,0
150575.4,122.53,-668.187,0,0
151877.025,121.186,-656.541,0,0
153178.65,121.584,-641.267,0,0
154480,125.955,-624.688,0,0
155782,133.694,-608.14,0,0
157084,146.135,-593.747,0,0
158385,158.635,-584.778,0,0
159687,168.522,-573.805,0,0
160988,187.102,-563.406,0,0
162290,206.448,-563.984,0,0
163592,217.555,-567.273,0,0
164893,229.198,-569.589,0,0
166195,241.169,-576.661,0,0
167497,246.111,-588.057,0,0
168798,243.608,-599.551,0,0
170100,233.714,-604.938,0,0
171401.375,225.265,-601.622,0,0
172703.0,222.181,-596.065,0,0
174004.625,218.418,-591.646,0,0
175306.25,217.272,-585.405,0,0
176607.875,217.474,-582.052,0,0
177909.5,216.714,-578.922,0,0
179211.125,212.453,-577.416,0,0
180512.75,205.483,-573.233,0,0
181814.375,198.571,-564.507,0,0
183116.0,192.599,-553.69,0,0
184417.625,187.727,-539.974,0,0
185719.25,186.777,-523.423,0,0
187021,188.345,-508.619,0,0
188322,191.865,-493.662,0,0
189624,195.784,-479.141,0,0
190926,200.426,-463.955,0,0
192227,206.136,-447.427,0,0
193529,214.967,-430.227,0,0
194831,225.516,-413.194,0,0
196132,239.065,-395.541,0,0
197434,255.574,-377.635,0,0
198735,276.497,-361.202,0,0
200037,298.647,-346.247,0,0
201339,326.279,-330.488,0,0
202640.35,362.598,-316.592,0,0
203941.975,406.477,-312.148,0,0
205243.6,457.95,-322.685,0,0
206545.225,500.766,-352.751,0,0
207846.85,527.649,-391.87,0,0
209148.475,539.501,-431.357,0,0
210450.1,536.552,-466.466,0,0
211751.725,526.188,-482.862,0,0
213053.35,525.016,-485.553,0,0
214354.975,537.884,-492.853,0,0
215656.6,550.869,-506.212,0,0
216958.225,561.923,-522.176,0,0
218259.85,575.038,-538.106,0,0
219561,591.755,-555.957,0,0
220863,612.181,-583.782,0,0
222165,630.155,-624.484,0,0
223466,633.517,-675.938,0,0
224768,621.914,-726.337,0,0
226070,598.871,-773.337,0,0
227371,566.482,-814.325,0,0
228673,522.052,-846.88,0,0
229974,474.166,-862.793,0,0
231276,430.228,-865.793,0,0
232578,394.332,-861.201,0,0
233879,366.058,-855.145,0,0
235180.95,341.541,-849.971,0,0
236482.575,316.468,-845.239,0,0
237784.2,292.448,-837.334,0,0
239085.825,270.605,-827.431,0,0
240387.45,251.413,-815.442,0,0
241689.075,235.075,-803.472,0,0
242990.7,221.058,-791.015,0,0
244292.325,208.94,-779.562,0,0
245593.95,197.151,-768.7,0,0
246895.575,185.424,-757.031,0,0
248197.2,175.464,-744.111,0,0
249498.825,167.419,-731.379,0,0
250800,160.442,-719.067,0,0
252102,154.407,-706.817,0,0
253404,149.001,-694.354,0,0
254705,145.385,-681.433,0,0
256007,143.452,-669.314,0,0
257309,142.106,-657.746,0,0
258610,141.75,-646.227,0,0
259912,143.582,-634.433,0,0
261213,148.015,-624.67,0,0
262515,153.312,-617.491,0,0
263817,158.894,-612.552,0,0
265118,164.818,-609.757,0,0
266420,171.208,-611.056,0,0
267721.55,172.799,-617.357,0,0
269023.175,167.41,-623.245,0,0
270324.8,157.161,-623.96,0,0
271626.425,147.474,-618.175,0,0
272928.05,141.713,-609.061,0,0
274229.675,140.067,-599.992,0,0
275531.3,140.435,-592.734,0,0
276832.925,141.567,-586.626,0,0
278134.55,143.846,-582.087,0,0
279436.175,145.757,-579.984,0,0
280737.8,146.035,-578.949,0,0
282039.425,144.667,-578.564,0,0
283341,141.137,-576.895,0,0
284643,137.828,-573.087,0,0
285944,135.309,-569.379,0,0
287246,130.901,-564.792,0,0
288548,128.296,-555.988,0,0
289849,130.67,-548.112,0,0
291151,133.717,-543.97,0,0
292452,135.374,-541.467,0,0
293754,134.403,-538.472,0,0
295056,133.472,-532.262,0,0
296357,136.377,-524.739,0,0
297659,141.527,-520.16,0,0
298960.525,146.445,-516.671,0,0
300262.15,151.905,-514.314,0,0
301563.775,158.274,-512.733,0,0
302865.4,165.54,-514.483,0,0
304167.025,170.594,-518.221,0,0
305468.65,174.6,-522.629,0,0
306770.275,177.846,-528.503,0,0
308071.9,178.494,-536.15,0,0
309373.525,176.384,-542.452,0,0
310675.15,174.394,-548.371,0,0
311976.775,170.445,-555.539,0,0
313278.4,162.906,-561.57,0,0
314580,154.369,-563.983,0,0
315882,146.604,-565.227,0,0
317183,138.455,-565.408,0,0
318485,130.548,-564.01,0,0
319787,122.945,-561.458,0,0
321088,116.021,-557.665,0,0
322390,110.095,-552.947,0,0
323691,105.463,-547.259,0,0
324993,102.513,-541.891,0,0
326295,100.769,-537.163,0,0
327596,99.5606,-533.605,0,0
328898,98.2842,-531.01,0,0
330200,96.6116,-529.181,0,0
331501.125,94.0839,-527.621,0,0
332802.75,90.9461,-525.941,0,0
334104.375,87.1852,-523.6,0,0
335406.0,83.3918,-520.611,0,0
336707.625,79.8655,-517.121,0,0
338009.25,76.6046,-513.334,0,0
339310.875,73.5906,-509.185,0,0
340612.5,71.1843,-504.97,0,0
341914.125,68.9711,-500.882,0,0
343215.75,66.8416,-496.926,0,0
344517.375,64.6206,-492.884,0,0
345819.0,62.6229,-488.472,0,0
347121,60.783,-483.842,0,0
348422,59.3979,-479.097,0,0
349724,58.5114,-474.507,0,0
351025,57.8101,-470.003,0,0
352327,57.4601,-465.657,0,0
353629,57.1477,-461.514,0,0
354930,56.8883,-457.459,0,0
356232,56.8922,-453.497,0,0
357534,57.0125,-449.691,0,0
358835,57.0565,-446.047,0,0
360137,57.2959,-442.301,0,0
361438,57.7205,-438.792,0,0
362740.1,57.9812,-435.397,0,0
364041.725,58.3551,-431.86,0,0
365343.35,58.9686,-428.462,0,0
366644.975,59.4485,-425.297,0,0
367946.6,59.6039,-421.734,0,0
369248.225,60.337,-417.287,0,0
370549.85,62.3321,-412.853,0,0
371851.475,65.5072,-409.145,0,0
373153.1,69.0584,-406.814,0,0
374454.725,72.4375,-405.79,0,0
375756.35,74.9475,-405.627,0,0
377057.975,76.8213,-405.364,0,0
378359.6,78.5827,-405.416,0,0
379661,79.675,-405.782,0,0
380963,80.8959,-405.803,0,0
382264,82.2542,-407.311,0,0
383566,81.9007,-409.575,0,0
384868,79.9249,-411.157,0,0
386169,77.1346,-411.758,0,0
387471,73.9887,-410.972,0,0
388773,71.3528,-409.038,0,0
390074,69.6757,-406.899,0,0
391376,68.4205,-404.969,0,0
392677,67.1482,-403.508,0,0
393979,65.0766,-402.055,0,0
395280.7,62.759,-399.777,0,0
396582.325,60.7178,-396.746,0,0
397883.95,59.1947,-393.385,0,0
399185.575,58.1126,-389.862,0,0
400006.6,57.6792,-387.597,0,0

File: sample_2.csv
Frequency (Hz),Impedance (ohms),Phase (Radians),Temperature (C),Humidity (%)
10000.0,231.241,-11421.1,0,0
11301.625,205.007,-10115.4,0,0
12603.25,184.655,-9081.27,0,0
13904.875,187.385,-8235.48,0,0
15206.5,164.414,-7545.83,0,0
16508.125,143.62,-6952.21,0,0
17809.75,133.348,-6445.12,0,0
19111.375,128.698,-6005.73,0,0
20413.0,118.496,-5622.87,0,0
21714.625,127.105,-5294.06,0,0
23016.25,112.562,-4997.84,0,0
24317.875,102.392,-4732.16,0,0
25619.5,97.7578,-4488.84,0,0
26921.1,95.232,-4271.06,0,0
28222.7,89.9234,-4071.94,0,0
29524.4,93.2484,-3888.14,0,0
30826,87.9272,-3733.7,0,0
32127.6,81.9516,-3580.05,0,0
33429.2,79.7563,-3441.64,0,0
34730.9,75.4639,-3310.75,0,0
36032.5,72.7487,-3189.64,0,0
37334.1,70.9022,-3076.1,0,0
38635.7,68.6581,-2970.97,0,0
39937.4,66.7974,-2872.37,0,0
41239,65.3877,-2779.65,0,0
42540.6,64.2546,-2693.22,0,0
43842.225,62.8917,-2611.03,0,0
45143.85,61.9444,-2533.3,0,0
46445.475,61.1869,-2461.28,0,0
47747.1,60.2201,-2391.78,0,0
49048.725,60.5515,-2327.72,0,0
50350.35,57.7425,-2265.9,0,0
51651.975,56.6389,-2206.62,0,0
52953.6,54.9459,-2149.42,0,0
54255.225,54.2455,-2094.87,0,0
55556.85,53.8239,-2042.73,0,0
56858.475,53.6971,-1993.17,0,0
58160.1,54.0602,-1945.76,0,0
59461.7,54.4909,-1899.93,0,0
60763.3,56.3222,-1857.49,0,0
62065,58.7554,-1819.2,0,0
63366.6,55.3549,-1782.53,0,0
64668.2,52.7778,-1744.11,0,0
65969.8,50.713,-1705.15,0,0
67271.5,51.3066,-1667.75,0,0
68573.1,53.3416,-1633.95,0,0
69874.7,55.8517,-1603.82,0,0
71176.3,52.3931,-1575.54,0,0
72478,47.757,-1544.99,0,0
73779.6,45.1577,-1512.17,0,0
75081.2,45.2544,-1479.84,0,0
76382.825,47.0136,-1449.47,0,0
77684.45,49.7716,-1421.26,0,0
78986.075,53.0435,-1397.05,0,0
80287.7,51.7666,-1375.47,0,0
81589.325,49.1653,-1350.42,0,0
82890.95,48.0826,-1324.76,0,0
84192.575,48.8165,-1299.94,0,0
85494.2,49.5352,-1276.46,0,0
86795.825,50.6246,-1254.45,0,0
88097.45,51.1518,-1233.25,0,0
89399.075,51.3965,-1211.73,0,0
90700.7,51.4729,-1191.69,0,0
92002.3,52.9952,-1170.43,0,0
93303.9,55.3585,-1151.51,0,0
94605.6,55.3464,-1134.97,0,0
95907.2,54.4475,-1115.63,0,0
97208.8,58.0867,-1098.54,0,0
98510.4,57.6652,-1084.97,0,0
99812.1,53.3243,-1070.09,0,0
101114,50.4742,-1052.52,0,0
102415,46.8647,-1032.32,0,0
103717,46.0686,-1011.23,0,0
105019,49.4109,-991,0,0
106320.175,54.097,-974.021,0,0
107621.8,57.6296,-962.137,0,0
108923.425,55.9341,-949.893,0,0
110225.05,52.7655,-934.567,0,0
111526.675,51.8026,-916.68,0,0
112828.3,52.2295,-899.231,0,0
114129.925,53.9125,-882.069,0,0
115431.55,56.8492,-865.601,0,0
116733.175,60.4172,-850.414,0,0
118034.8,64.4506,-836.535,0,0
119336.425,67.9583,-824.777,0,0
120638.05,69.9045,-814.286,0,0
121939.675,69.2936,-803.095,0,0
123241,68.3802,-790.061,0,0
124543,67.7961,-776.186,0,0
125845,68.0663,-761.188,0,0
127146,69.6524,-746.066,0,0
128448,72.5702,-731.836,0,0
129749,75.1609,-718.895,0,0
131051,77.6204,-705.834,0,0
132353,78.9908,-693.502,0,0
133654,80.2889,-679.525,0,0
134956,81.7217,-665.351,0,0
136258,84.1865,-650.207,0,0
137559,87.2831,-635.12,0,0
138860.775,90.6453,-620.085,0,0
140162.4,93.9198,-603.853,0,0
141464.025,99.7959,-584.896,0,0
142765.65,109.565,-567.501,0,0
144067.275,120.191,-552.133,0,0
145368.9,131.906,-536.919,0,0
146670.525,145.665,-522.961,0,0
147972.15,161.799,-509.719,0,0
149273.775,182.767,-498.056,0,0
150575.4,209.575,-496.176,0,0
151877.025,229.907,-508.378,0,0
153178.65,236.321,-523.33,0,0
154480,233.111,-533.199,0,0
155782,228.443,-534.835,0,0
157084,222.563,-533.125,0,0
158385,219.129,-524.814,0,0
159687,220.956,-517.844,0,0
160988,221.97,-512.007,0,0
162290,229.703,-508.171,0,0
163592,225.363,-514.784,0,0
164893,211.861,-511.124,0,0
166195,199.132,-496.897,0,0
167497,192.443,-477.456,0,0
168798,190.404,-455.091,0,0
170100,192.636,-432.58,0,0
171401.375,197.47,-409.973,0,0
172703.0,206.816,-385.936,0,0
174004.625,219.742,-361.741,0,0
175306.25,239.975,-337.392,0,0
176607.875,266.816,-321.092,0,0
177909.5,294.668,-310.99,0,0
179211.125,316.73,-312.7,0,0
180512.75,324.95,-311.764,0,0
181814.375,330.948,-295.395,0,0
183116.0,347.877,-274.892,0,0
184417.625,373.194,-251.4,0,0
185719.25,408.842,-233.262,0,0
187021,447.235,-222.157,0,0
188322,490.21,-214.777,0,0
189624,531.354,-214.215,0,0
190926,577.789,-210.262,0,0
192227,638.294,-211.188,0,0
193529,711.708,-231.099,0,0
194831,778.965,-281.295,0,0
196132,827.616,-344.521,0,0
197434,864.469,-411.611,0,0
198735,893.272,-492.634,0,0
200037,896.776,-576.477,0,0
201339,885.526,-664.592,0,0
202640.35,846.469,-741.086,0,0
203941.975,793.229,-799.219,0,0
205243.6,739.24,-843.086,0,0
206545.225,675.703,-866.283,0,0
207846.85,625.292,-871.532,0,0
209148.475,590.519,-875.318,0,0
210450.1,552.741,-887.185,0,0
211751.725,507.767,-889.224,0,0
213053.35,470.198,-877.769,0,0
214354.975,441.08,-864.045,0,0
215656.6,417.581,-850.1,0,0
216958.225,399.091,-834.722,0,0
218259.85,385.636,-820.385,0,0
219561,376.087,-806.754,0,0
220863,370.163,-796.232,0,0
222165,367.643,-787.362,0,0
223466,367.123,-784.868,0,0
224768,363.444,-785.011,0,0
226070,358.283,-784.754,0,0
227371,356.172,-786.103,0,0
228673,353.186,-793.082,0,0
229974,343.741,-803.828,0,0
231276,328.135,-811.636,0,0
232578,310.67,-815.784,0,0
233879,291.869,-816.41,0,0
235180.95,273.655,-813.983,0,0
236482.575,256.301,-809.71,0,0
237784.2,239.181,-803.372,0,0
239085.825,223.678,-794.654,0,0
240387.45,210.104,-784.706,0,0
241689.075,198.553,-774.507,0,0
242990.7,188.718,-763.957,0,0
244292.325,180.157,-754.981,0,0
245593.95,171.319,-746.968,0,0
246895.575,160.322,-739.489,0,0
248197.2,147.894,-728.042,0,0
249498.825,137.815,-714.007,0,0
250800,129.737,-698.335,0,0
252102,124.959,-681.317,0,0
253404,123.161,-665.433,0,0
254705,122.686,-650.239,0,0
256007,124.226,-634.632,0,0
257309,129.278,-620.687,0,0
258610,135.443,-609.242,0,0
259912,142.633,-599.08,0,0
261213,151.593,-591.529,0,0
262515,160.652,-586.997,0,0
263817,169.009,-585.499,0,0
265118,175.389,-586.357,0,0
266420,178.802,-587.954,0,0
267721.55,180.574,-588.97,0,0
269023.175,180.636,-589.03,0,0
270324.8,180.499,-586.123,0,0
271626.425,183.707,-581.354,0,0
272928.05,190.526,-577.902,0,0
274229.675,201.353,-578.226,0,0
275531.3,213.779,-587.355,0,0
276832.925,217.261,-605.67,0,0
278134.55,209.46,-621.067,0,0
279436.175,197.817,-630.779,0,0
280737.8,184.523,-636.019,0,0
282039.425,171.639,-638.144,0,0
283341,156.713,-636.871,0,0
284643,145.706,-631.254,0,0
285944,133.26,-626.882,0,0
287246,120.009,-615.188,0,0
288548,113.164,-598.091,0,0
289849,115.927,-579.207,0,0
291151,128.199,-567.027,0,0
292452,143.391,-567.31,0,0
293754,148.25,-577.37,0,0
295056,144.243,-581.292,0,0
296357,145.585,-581.146,0,0
297659,145.575,-590.298,0,0
298960.525,136.396,-595.954,0,0
300262.15,126.725,-596.452,0,0
301563.775,118.588,-592.958,0,0
302865.4,114.683,-589.679,0,0
304167.025,110.355,-589.546,0,0
305468.65,102.993,-589.276,0,0
306770.275,94.4475,-586.302,0,0
308071.9,86.723,-580.994,0,0
309373.525,80.6944,-574.543,0,0
310675.15,76.0011,-568.178,0,0
311976.775,71.856,-561.761,0,0
313278.4,68.4701,-555.103,0,0
314580,65.9002,-548.69,0,0
315882,63.7763,-542.492,0,0
317183,62.0453,-536.293,0,0
318485,61.0246,-530.431,0,0
319787,60.0311,-525.099,0,0
321088,59.0659,-519.989,0,0
322390,58.006,-514.791,0,0
323691,56.963,-509.077,0,0
324993,56.7681,-502.445,0,0
326295,58.8922,-496.127,0,0
327596,62.1821,-492.323,0,0
328898,64.1958,-490.24,0,0
330200,65.5186,-488.525,0,0
331501.125,66.1794,-487.679,0,0
332802.75,65.2549,-487.268,0,0
334104.375,62.8611,-485.788,0,0
335406.0,60.4075,-482.852,0,0
336707.625,58.4874,-479.453,0,0
338009.25,56.8694,-475.472,0,0
339310.875,55.6869,-471.251,0,0
340612.5,54.9263,-466.898,0,0
341914.125,54.7385,-462.467,0,0
343215.75,54.8592,-458.201,0,0
344517.375,55.351,-453.989,0,0
345819.0,56.3422,-450.04,0,0
347121,57.5756,-446.477,0,0
348422,58.9736,-443.258,0,0
349724,60.5552,-440.418,0,0
351025,62.2071,-438.093,0,0
352327,63.5896,-436.316,0,0
353629,64.5145,-434.56,0,0
354930,65.5549,-432.615,0,0
356232,66.6975,-430.864,0,0
357534,68.0861,-429.233,0,0
358835,69.7079,-428.409,0,0
360137,70.8701,-428.379,0,0
361438,71.194,-428.685,0,0
362740.1,70.6891,-428.899,0,0
364041.725,69.6482,-428.729,0,0
365343.35,68.2938,-428.095,0,0
366644.975,66.7709,-426.863,0,0
367946.6,65.7637,-424.886,0,0
369248.225,65.706,-423.44,0,0
370549.85,65.0554,-422.921,0,0
371851.475,63.6886,-422.01,0,0
373153.1,62.4022,-420.647,0,0
374454.725,61.2385,-419.413,0,0
375756.35,59.7614,-418.197,0,0
377057.975,58.224,-416.558,0,0
378359.6,56.8564,-415.279,0,0
379661,54.1239,-413.914,0,0
380963,51.7623,-410.113,0,0
382264,51.8848,-407.207,0,0
383566,50.9224,-405.8,0,0
384868,49.0218,-403.807,0,0
386169,47.1059,-401.05,0,0
387471,45.6742,-397.718,0,0
388773,44.7301,-394.229,0,0
390074,44.4656,-390.781,0,0
391376,44.7358,-388.064,0,0
392677,44.3316,-386.263,0,0
393979,42.8602,-383.957,0,0
395280.7,41.3561,-380.58,0,0
396582.325,40.6132,-376.588,0,0
397883.95,40.5984,-372.652,0,0
399185.575,41.0879,-368.989,0,0
400006.6,41.4945,-366.903,0,0