Folder: ML_Dmg_Mehdi_Dataset/Accelerated corrosion test data/2025-10-21_06-00-04 (part 4)

File: sample_7.csv
Frequency (Hz),Impedance (ohms),Phase (Radians),Temperature (C),Humidity (%)
10000.0,272.468,-12115.1,0,0
11301.625,245.41,-10716.7,0,0
12603.25,260.881,-9672.33,0,0
13904.875,207.183,-8771.76,0,0
15206.5,196.417,-8027.91,0,0
16508.125,170.11,-7387.47,0,0
17809.75,165.078,-6830.89,0,0
19111.375,185.441,-6393.71,0,0
20413.0,168.639,-5986.91,0,0
21714.625,156.139,-5651.52,0,0
23016.25,129.131,-5328.72,0,0
24317.875,121.218,-5035,0,0
25619.5,116.977,-4770.33,0,0
26921.1,120.016,-4524.4,0,0
28222.7,177.376,-4297.48,0,0
29524.4,140.602,-4188.54,0,0
30826,130.349,-3997.51,0,0
32127.6,116.904,-3848.62,0,0
33429.2,100.808,-3698.35,0,0
34730.9,91.2722,-3552.74,0,0
36032.5,87.4697,-3418.49,0,0
37334.1,85.1501,-3294.47,0,0
38635.7,85.8614,-3176.9,0,0
39937.4,99.8074,-3077.05,0,0
41239,86.6687,-2991.17,0,0
42540.6,79.1394,-2894.82,0,0
43842.225,78.2118,-2805.61,0,0
45143.85,80.1249,-2728.1,0,0
46445.475,76.82,-2654.39,0,0
47747.1,69.4634,-2578.46,0,0
49048.725,67.1928,-2507.88,0,0
50350.35,65.3517,-2440.46,0,0
51651.975,63.7342,-2376.84,0,0
52953.6,63.0509,-2316.3,0,0
54255.225,61.6185,-2259.71,0,0
55556.85,60.1321,-2204.72,0,0
56858.475,59.3268,-2152.1,0,0
58160.1,58.5273,-2101.84,0,0
59461.7,58.6047,-2054.31,0,0
60763.3,58.2177,-2010.3,0,0
62065,56.0805,-1966.65,0,0
63366.6,54.8491,-1923.93,0,0
64668.2,54.1776,-1883.31,0,0
65969.8,54.3127,-1844.62,0,0
67271.5,52.4859,-1807.83,0,0
68573.1,51.27,-1770.95,0,0
69874.7,50.6814,-1735.71,0,0
71176.3,50.4673,-1701.9,0,0
72478,49.5127,-1669.68,0,0
73779.6,48.5776,-1637.77,0,0
75081.2,48.0758,-1607.07,0,0
76382.825,47.5921,-1577.24,0,0
77684.45,47.3426,-1548.29,0,0
78986.075,47.0093,-1520.27,0,0
80287.7,46.8383,-1493.27,0,0
81589.325,46.4933,-1467.03,0,0
82890.95,46.2808,-1441.26,0,0
84192.575,46.2311,-1416.19,0,0
85494.2,46.3744,-1392.16,0,0
86795.825,46.3628,-1368.8,0,0
88097.45,46.5104,-1346.11,0,0
89399.075,45.9597,-1323.74,0,0
90700.7,45.9061,-1301.41,0,0
92002.3,46.1709,-1279.64,0,0
93303.9,46.7228,-1257.71,0,0
94605.6,50.6903,-1238.45,0,0
95907.2,48.9418,-1221.36,0,0
97208.8,48.3643,-1200.96,0,0
98510.4,49.0404,-1181.87,0,0
99812.1,48.6896,-1163.34,0,0
101114,50.1184,-1143.82,0,0
102415,51.9628,-1125.67,0,0
103717,54.5841,-1108.93,0,0
105019,55.7336,-1093.98,0,0
106320.175,55.0649,-1078.22,0,0
107621.8,55.7296,-1061.44,0,0
108923.425,56.8812,-1044.98,0,0
110225.05,57.4772,-1028.24,0,0
111526.675,60.6037,-1011.07,0,0
112828.3,65.1409,-994.422,0,0
114129.925,70.6708,-980.336,0,0
115431.55,77.5947,-967.533,0,0
116733.175,86.5075,-958.874,0,0
118034.8,91.1439,-954.907,0,0
119336.425,93.587,-953.698,0,0
120638.05,86.3988,-954.127,0,0
121939.675,74.6399,-943.898,0,0
123241,67.4788,-931.054,0,0
124543,62.2579,-916.581,0,0
125845,57.9272,-902.882,0,0
127146,54.0315,-887.792,0,0
128448,52.455,-872.314,0,0
129749,50.9264,-858.004,0,0
131051,49.6108,-843.558,0,0
132353,48.4827,-828.24,0,0
133654,49.0341,-812.42,0,0
134956,52.2102,-797.743,0,0
136258,56.3832,-785.571,0,0
137559,55.8948,-777.972,0,0
138860.775,53.6015,-765.093,0,0
140162.4,53.1951,-750.786,0,0
141464.025,53.2936,-737.353,0,0
142765.65,54.4464,-722.627,0,0
144067.275,57.3306,-708.977,0,0
145368.9,59.1338,-697.223,0,0
146670.525,60.3575,-684.033,0,0
147972.15,61.6275,-671.612,0,0
149273.775,61.882,-658.683,0,0
150575.4,61.6106,-643.534,0,0
151877.025,62.8945,-625.966,0,0
153178.65,66.6016,-607.814,0,0
154480,72.0124,-589.475,0,0
155782,79.886,-570.654,0,0
157084,90.5803,-553.082,0,0
158385,103.94,-538.641,0,0
159687,114.306,-529.492,0,0
160988,117.923,-515.986,0,0
162290,124.503,-493.065,0,0
163592,139.954,-467.93,0,0
164893,162.683,-445.844,0,0
166195,188.616,-420.581,0,0
167497,232.655,-396.638,0,0
168798,293.423,-389.577,0,0
170100,356.814,-411.373,0,0
171401.375,411.25,-458.899,0,0
172703.0,441.297,-531.017,0,0
174004.625,422.472,-610.787,0,0
175306.25,363.908,-642.231,0,0
176607.875,332.977,-632.923,0,0
177909.5,332.216,-628.737,0,0
179211.125,341.608,-660.337,0,0
180512.75,308.702,-688.371,0,0
181814.375,269.211,-701.638,0,0
183116.0,223.96,-699.568,0,0
184417.625,191.355,-675.545,0,0
185719.25,170.983,-652.585,0,0
187021,154.745,-625.489,0,0
188322,149.995,-600.217,0,0
189624,143.115,-582.561,0,0
190926,135.724,-559.023,0,0
192227,134.942,-534.02,0,0
193529,136.531,-508.269,0,0
194831,143.445,-484.243,0,0
196132,153.8,-463.166,0,0
197434,165.891,-444.615,0,0
198735,175.624,-429.578,0,0
200037,184.349,-410.521,0,0
201339,197.626,-388.185,0,0
202640.35,216.275,-364.51,0,0
203941.975,242.506,-343.331,0,0
205243.6,274.526,-324.575,0,0
206545.225,316.389,-316.83,0,0
207846.85,349.013,-318.701,0,0
209148.475,384.784,-311.396,0,0
210450.1,442.798,-315.319,0,0
211751.725,496.001,-356.52,0,0
213053.35,521.363,-405.214,0,0
214354.975,536.705,-449.59,0,0
215656.6,540.308,-497.77,0,0
216958.225,538.072,-542.867,0,0
218259.85,516.881,-589.487,0,0
219561,476.037,-621.45,0,0
220863,435.988,-622.378,0,0
222165,414.841,-612.144,0,0
223466,407.358,-604.071,0,0
224768,402.776,-600.625,0,0
226070,402.727,-593.12,0,0
227371,413.025,-594.755,0,0
228673,424.547,-605.106,0,0
229974,428.958,-625.815,0,0
231276,428.766,-651.486,0,0
232578,418.452,-676.934,0,0
233879,397.538,-709.503,0,0
235180.95,354.81,-724.697,0,0
236482.575,317.692,-718.16,0,0
237784.2,289.753,-707.361,0,0
239085.825,269.819,-685.824,0,0
240387.45,267.57,-670.032,0,0
241689.075,257.738,-668.67,0,0
242990.7,239.515,-657.574,0,0
244292.325,232.627,-636.471,0,0
245593.95,237.524,-624.596,0,0
246895.575,234.211,-620.025,0,0
248197.2,228.629,-610.082,0,0
249498.825,226.34,-596.787,0,0
250800,229.805,-582.541,0,0
252102,238.673,-571.036,0,0
253404,253.366,-565.903,0,0
254705,265.583,-571.922,0,0
256007,269.659,-581.77,0,0
257309,266.169,-589.844,0,0
258610,259.802,-591.365,0,0
259912,257.64,-592.187,0,0
261213,252.196,-591.135,0,0
262515,250.351,-585.861,0,0
263817,255.967,-583.104,0,0
265118,259.776,-588.367,0,0
266420,260.101,-593.258,0,0
267721.55,258.614,-600.771,0,0
269023.175,251.077,-606.455,0,0
270324.8,245.036,-604.867,0,0
271626.425,248.449,-603.251,0,0
272928.05,258.151,-617.349,0,0
274229.675,247.271,-644.342,0,0
275531.3,217.587,-661.082,0,0
276832.925,181.198,-657.973,0,0
278134.55,154.239,-638.499,0,0
279436.175,141.165,-614.624,0,0
280737.8,137.386,-594.25,0,0
282039.425,136.578,-580.707,0,0
283341,133.383,-566.518,0,0
284643,134.756,-549.574,0,0
285944,142.068,-536.537,0,0
287246,149.59,-529.946,0,0
288548,152.668,-526.396,0,0
289849,153.201,-519.305,0,0
291151,156.718,-509.208,0,0
292452,163.252,-501.407,0,0
293754,171.203,-494.418,0,0
295056,180.019,-488.743,0,0
296357,191.03,-484.006,0,0
297659,204.721,-481.54,0,0
298960.525,219.665,-483.194,0,0
300262.15,236.572,-488.454,0,0
301563.775,255.312,-501.055,0,0
302865.4,270.864,-527.213,0,0
304167.025,268.057,-560.369,0,0
305468.65,252.843,-585.123,0,0
306770.275,231.743,-602.407,0,0
308071.9,208.147,-610.522,0,0
309373.525,185.374,-611.18,0,0
310675.15,167.057,-605.25,0,0
311976.775,153.713,-598.556,0,0
313278.4,142.069,-591.868,0,0
314580,131.296,-583.594,0,0
315882,123.62,-573.402,0,0
317183,119.513,-564.184,0,0
318485,116.483,-556.615,0,0
319787,114.442,-549.85,0,0
321088,113.034,-544.496,0,0
322390,111.355,-539.956,0,0
323691,109.731,-535.879,0,0
324993,107.919,-532.081,0,0
326295,106.712,-528.162,0,0
327596,105.964,-525.953,0,0
328898,103.655,-524.632,0,0
330200,100.656,-522.989,0,0
331501.125,96.8644,-521.397,0,0
332802.75,91.9324,-519.251,0,0
334104.375,86.4321,-515.784,0,0
335406.0,81.2703,-511.092,0,0
336707.625,76.6206,-505.713,0,0
338009.25,72.5043,-499.295,0,0
339310.875,69.4827,-492.693,0,0
340612.5,67.0057,-486.058,0,0
341914.125,65.1294,-479.109,0,0
343215.75,64.2711,-471.992,0,0
344517.375,64.6704,-465.352,0,0
345819.0,65.807,-459.908,0,0
347121,66.4247,-456.053,0,0
348422,65.6282,-452.256,0,0
349724,64.3905,-447.184,0,0
351025,63.5888,-441.484,0,0
352327,63.8373,-434.897,0,0
353629,65.7596,-428.941,0,0
354930,68.337,-424.398,0,0
356232,70.6901,-421.397,0,0
357534,71.3568,-419.395,0,0
358835,70.2162,-416.193,0,0
360137,69.5027,-410.983,0,0
361438,70.1848,-405.051,0,0
362740.1,72.3158,-399.286,0,0
364041.725,75.1555,-394.308,0,0
365343.35,78.8827,-390.097,0,0
366644.975,82.5274,-387.326,0,0
367946.6,85.6651,-384.865,0,0
369248.225,88.9666,-383.124,0,0
370549.85,91.5802,-382.655,0,0
371851.475,92.0508,-382.274,0,0
373153.1,91.914,-379.756,0,0
374454.725,93.0396,-376.51,0,0
375756.35,94.9918,-373.839,0,0
377057.975,96.5246,-371.847,0,0
378359.6,97.4408,-369.154,0,0
379661,99.1921,-365.801,0,0
380963,101.41,-363.054,0,0
382264,103.776,-360.172,0,0
383566,106.543,-357.69,0,0
384868,109.154,-355.316,0,0
386169,111.862,-353.163,0,0
387471,114.427,-350.851,0,0
388773,117.153,-347.494,0,0
390074,121.96,-344.204,0,0
391376,127.342,-342.46,0,0
392677,132.728,-341.525,0,0
393979,137.524,-341.284,0,0
395280.7,142.349,-339.915,0,0
396582.325,149.212,-338.314,0,0
397883.95,159.073,-338.078,0,0
399185.575,171.457,-342.204,0,0
400006.6,179.306,-348.572,0,0

File: sample_8.csv
Frequency (Hz),Impedance (ohms),Phase (Radians),Temperature (C),Humidity (%)
10000.0,303.402,-10994.6,0,0
11301.625,269.1,-9743.1,0,0
12603.25,248.126,-8749.43,0,0
13904.875,220.521,-7946.76,0,0
15206.5,200.471,-7271.35,0,0
16508.125,185.056,-6703.5,0,0
17809.75,172.495,-6216.36,0,0
19111.375,164.705,-5792.11,0,0
20413.0,158.345,-5430.26,0,0
21714.625,146.846,-5109.64,0,0
23016.25,141.608,-4825.79,0,0
24317.875,130.014,-4568.75,0,0
25619.5,123.477,-4334.94,0,0
26921.1,118.306,-4124.1,0,0
28222.7,115.62,-3933.83,0,0
29524.4,111.963,-3760.87,0,0
30826,107.793,-3602.84,0,0
32127.6,103.935,-3454.34,0,0
33429.2,104.246,-3317.18,0,0
34730.9,105.437,-3192.4,0,0
36032.5,108.697,-3081.91,0,0
37334.1,104.744,-2982.49,0,0
38635.7,94.3649,-2885.58,0,0
39937.4,86.8485,-2788.13,0,0
41239,84.1175,-2697.68,0,0
42540.6,81.2704,-2612.41,0,0
43842.225,80.2312,-2535.01,0,0
45143.85,76.2452,-2460.21,0,0
46445.475,73.3924,-2388.96,0,0
47747.1,71.5386,-2321.43,0,0
49048.725,69.5635,-2257.64,0,0
50350.35,67.5714,-2196.58,0,0
51651.975,66.691,-2138.43,0,0
52953.6,66.2613,-2083.53,0,0
54255.225,65.1937,-2033.44,0,0
55556.85,62.2593,-1984.04,0,0
56858.475,60.2252,-1935.18,0,0
58160.1,59.4222,-1888.62,0,0
59461.7,58.453,-1844.75,0,0
60763.3,57.3658,-1801.67,0,0
62065,56.8581,-1760.84,0,0
63366.6,57.5348,-1721.53,0,0
64668.2,57.1361,-1685.25,0,0
65969.8,56.4625,-1649.86,0,0
67271.5,54.868,-1615.31,0,0
68573.1,53.7819,-1581.31,0,0
69874.7,53.7821,-1548.17,0,0
71176.3,53.7084,-1516.95,0,0
72478,53.3267,-1487.29,0,0
73779.6,52.5501,-1457.89,0,0
75081.2,51.8314,-1429.13,0,0
76382.825,51.5115,-1401.1,0,0
77684.45,51.061,-1374.39,0,0
78986.075,50.428,-1347.99,0,0
80287.7,49.8258,-1321.75,0,0
81589.325,50.0609,-1295.91,0,0
82890.95,50.8938,-1270.97,0,0
84192.575,52.3806,-1247.71,0,0
85494.2,51.3446,-1225.46,0,0
86795.825,51.5635,-1201.76,0,0
88097.45,52.3094,-1179.11,0,0
89399.075,52.995,-1156.36,0,0
90700.7,55.6192,-1133.38,0,0
92002.3,59.1409,-1114.16,0,0
93303.9,61.0527,-1093.91,0,0
94605.6,63.4089,-1075.59,0,0
95907.2,65.0426,-1056.3,0,0
97208.8,68.4821,-1036.86,0,0
98510.4,73.5575,-1018.65,0,0
99812.1,78.3374,-1003.52,0,0
101114,83.6979,-989.718,0,0
102415,86.5359,-978.897,0,0
103717,86.9984,-967.212,0,0
105019,85.6158,-955.38,0,0
106320.175,85.0657,-940.785,0,0
107621.8,84.9098,-927.423,0,0
108923.425,84.9906,-912.237,0,0
110225.05,86.7667,-899.228,0,0
111526.675,87.4098,-886.567,0,0
112828.3,88.3041,-874.675,0,0
114129.925,87.8999,-862.899,0,0
115431.55,87.9564,-851.003,0,0
116733.175,86.3803,-838.916,0,0
118034.8,86.0219,-826.084,0,0
119336.425,85.8279,-813.939,0,0
120638.05,84.7925,-801.506,0,0
121939.675,84.5705,-789.25,0,0
123241,83.6333,-776.983,0,0
124543,82.6976,-764.602,0,0
125845,81.2587,-751.625,0,0
127146,80.2834,-737.861,0,0
128448,80.2031,-723.649,0,0
129749,80.207,-710.115,0,0
131051,81.3109,-695.522,0,0
132353,82.3924,-682.491,0,0
133654,83.018,-669.17,0,0
134956,84.3228,-654.924,0,0
136258,86.5863,-641.969,0,0
137559,86.4884,-629.342,0,0
138860.775,86.4713,-613.613,0,0
140162.4,88.6656,-597.911,0,0
141464.025,90.9937,-582.025,0,0
142765.65,93.778,-564.958,0,0
144067.275,98.5144,-547.368,0,0
145368.9,105.114,-528.926,0,0
146670.525,114.124,-511.151,0,0
147972.15,123.376,-495.744,0,0
149273.775,134.428,-476.345,0,0
150575.4,153.572,-457.086,0,0
151877.025,179.993,-448.75,0,0
153178.65,199.158,-451.905,0,0
154480,209.336,-454.007,0,0
155782,223.453,-455.939,0,0
157084,221.506,-465.955,0,0
158385,220.963,-456.474,0,0
159687,227.963,-455.447,0,0
160988,220.304,-451.958,0,0
162290,225.961,-434.765,0,0
163592,236.979,-431.978,0,0
164893,241.825,-429.703,0,0
166195,241.342,-432.784,0,0
167497,230.426,-428.222,0,0
168798,220.693,-413.772,0,0
170100,215.587,-391.385,0,0
171401.375,216.132,-366.419,0,0
172703.0,224.01,-338.753,0,0
174004.625,236.787,-314.691,0,0
175306.25,247.656,-292.517,0,0
176607.875,263.712,-263.625,0,0
177909.5,282.559,-234.331,0,0
179211.125,314.753,-201.508,0,0
180512.75,356.83,-176.128,0,0
181814.375,403.95,-155.978,0,0
183116.0,461.996,-154.929,0,0
184417.625,501.907,-160.707,0,0
185719.25,553.317,-165.14,0,0
187021,599.745,-182.299,0,0
188322,639.683,-202.455,0,0
189624,674.123,-224.413,0,0
190926,712.04,-238.847,0,0
192227,753.846,-266.299,0,0
193529,799.386,-279.679,0,0
194831,875.366,-317.408,0,0
196132,946.769,-395.278,0,0
197434,989.846,-512.004,0,0
198735,978.818,-644.441,0,0
200037,913.48,-755.742,0,0
201339,833.876,-816.648,0,0
202640.35,744.591,-860.501,0,0
203941.975,665.699,-854.859,0,0
205243.6,606.245,-842.933,0,0
206545.225,563.522,-809.59,0,0
207846.85,552.114,-781.342,0,0
209148.475,547.851,-768.724,0,0
210450.1,547.027,-757.007,0,0
211751.725,556.538,-755.43,0,0
213053.35,564.646,-769.34,0,0
214354.975,562.243,-790.251,0,0
215656.6,554.684,-811.511,0,0
216958.225,539.233,-834.435,0,0
218259.85,517.829,-854.932,0,0
219561,488.848,-871.458,0,0
220863,455.07,-878.334,0,0
222165,426.015,-873.804,0,0
223466,404.799,-865.121,0,0
224768,391.898,-858.858,0,0
226070,382.052,-859.724,0,0
227371,366.482,-865.48,0,0
228673,346.895,-866.113,0,0
229974,329.58,-869.233,0,0
231276,305.419,-871.793,0,0
232578,278.342,-868.727,0,0
233879,249.887,-859.471,0,0
235180.95,224.432,-841.839,0,0
236482.575,206.862,-820.058,0,0
237784.2,195.482,-798.848,0,0
239085.825,189.213,-777.788,0,0
240387.45,188.998,-762,0,0
241689.075,187.994,-752.993,0,0
242990.7,181.935,-744.326,0,0
244292.325,175.866,-733.173,0,0
245593.95,171.653,-721.071,0,0
246895.575,170.52,-709.513,0,0
248197.2,168.608,-700.114,0,0
249498.825,167.162,-690.348,0,0
250800,166.841,-680.34,0,0
252102,169.042,-671.673,0,0
253404,171.929,-666.857,0,0
254705,170.834,-664.944,0,0
256007,165.957,-660.662,0,0
257309,160.694,-652.312,0,0
258610,158.919,-640.603,0,0
259912,162.117,-629.784,0,0
261213,166.056,-622.495,0,0
262515,169.319,-616.7,0,0
263817,171.968,-609.491,0,0
265118,176.336,-600.874,0,0
266420,185.683,-590.662,0,0
267721.55,202.997,-585.076,0,0
269023.175,222.55,-589.874,0,0
270324.8,240.123,-603.173,0,0
271626.425,250.665,-626.974,0,0
272928.05,249.678,-655.75,0,0
274229.675,231.312,-683.344,0,0
275531.3,203.337,-695.889,0,0
276832.925,176.947,-696.273,0,0
278134.55,155.043,-689.381,0,0
279436.175,137.978,-677.402,0,0
280737.8,128.393,-663.144,0,0
282039.425,124.143,-651.694,0,0
283341,121.519,-643.401,0,0
284643,118.967,-635.481,0,0
285944,118.955,-628.08,0,0
287246,122.469,-624.167,0,0
288548,123.947,-628.17,0,0
289849,116.654,-633.494,0,0
291151,105.556,-632.722,0,0
292452,95.1997,-628.787,0,0
293754,85.7118,-622.145,0,0
295056,77.8859,-613.472,0,0
296357,72.7481,-604.196,0,0
297659,68.7607,-595.483,0,0
298960.525,65.5859,-586.601,0,0
300262.15,63.6689,-577.55,0,0
301563.775,63.2886,-568.665,0,0
302865.4,64.4169,-560.896,0,0
304167.025,66.2539,-554.456,0,0
305468.65,68.3582,-549.405,0,0
306770.275,70.2267,-545.75,0,0
308071.9,71.7011,-542.896,0,0
309373.525,72.0732,-541.457,0,0
310675.15,70.9828,-539.167,0,0
311976.775,70.1704,-536.583,0,0
313278.4,68.9231,-534.306,0,0
314580,67.1494,-531.668,0,0
315882,65.1919,-528.469,0,0
317183,63.7277,-524.755,0,0
318485,62.5162,-521.192,0,0
319787,61.8173,-517.299,0,0
321088,61.5362,-514.467,0,0
322390,60.8472,-512.058,0,0
323691,59.5448,-510.134,0,0
324993,57.3016,-507.64,0,0
326295,55.0626,-504.463,0,0
327596,53.1341,-500.878,0,0
328898,51.4125,-497.317,0,0
330200,49.5937,-493.489,0,0
331501.125,48.0491,-489.383,0,0
332802.75,46.7828,-484.948,0,0
334104.375,46.1135,-480.287,0,0
335406.0,46.2988,-476.1,0,0
336707.625,46.5956,-472.754,0,0
338009.25,46.4976,-469.987,0,0
339310.875,45.7898,-467.249,0,0
340612.5,44.7882,-464.261,0,0
341914.125,43.6123,-460.818,0,0
343215.75,42.5722,-457.08,0,0
344517.375,41.8107,-452.93,0,0
345819.0,41.5078,-448.734,0,0
347121,41.6475,-444.598,0,0
348422,42.0752,-440.672,0,0
349724,42.688,-436.762,0,0
351025,43.7352,-433.099,0,0
352327,44.9288,-429.957,0,0
353629,46.075,-427.241,0,0
354930,47.1375,-424.782,0,0
356232,48.0768,-422.543,0,0
357534,48.7335,-420.432,0,0
358835,49.282,-418.336,0,0
360137,49.8435,-416.261,0,0
361438,50.4217,-414.224,0,0
362740.1,50.852,-412.393,0,0
364041.725,51.1154,-410.603,0,0
365343.35,51.3446,-408.798,0,0
366644.975,51.4127,-406.951,0,0
367946.6,51.4641,-404.904,0,0
369248.225,51.6893,-402.623,0,0
370549.85,52.5661,-400.532,0,0
371851.475,53.5661,-399.318,0,0
373153.1,53.8806,-398.687,0,0
374454.725,53.4194,-398.08,0,0
375756.35,52.2316,-396.808,0,0
377057.975,51.5244,-394.821,0,0
378359.6,50.9738,-393.33,0,0
379661,49.7579,-391.261,0,0
380963,49.5847,-388.317,0,0
382264,50.3665,-386.762,0,0
383566,49.9279,-385.997,0,0
384868,48.5271,-384.852,0,0
386169,46.8918,-382.857,0,0
387471,45.3493,-380.166,0,0
388773,44.2983,-376.975,0,0
390074,43.9077,-373.741,0,0
391376,43.7524,-370.846,0,0
392677,43.6606,-368.081,0,0
393979,43.4812,-365.249,0,0
395280.7,43.4972,-362.263,0,0
396582.325,43.7807,-359.308,0,0
397883.95,44.1929,-356.636,0,0
399185.575,44.5808,-354.015,0,0
400006.6,44.8234,-352.414,0,0