Folder: ML_Dmg_Mehdi_Dataset/Accelerated corrosion test data/2025-10-09_06-00-03 (part 4)

File: sample_8.csv
Frequency (Hz),Impedance (ohms),Phase (Radians),Temperature (C),Humidity (%)
10000.0,313.346,-10958.8,0,0
11301.625,277.966,-9712.51,0,0
12603.25,256.203,-8722.61,0,0
13904.875,227.342,-7922.13,0,0
15206.5,206.875,-7248.96,0,0
16508.125,190.757,-6682.94,0,0
17809.75,177.38,-6197.14,0,0
19111.375,169.312,-5775.82,0,0
20413.0,161.2,-5413.38,0,0
21714.625,151.772,-5093.26,0,0
23016.25,145.434,-4810.46,0,0
24317.875,135.176,-4554.19,0,0
25619.5,128.448,-4321.88,0,0
26921.1,123.082,-4110.98,0,0
28222.7,120.249,-3920.16,0,0
29524.4,117.326,-3746.93,0,0
30826,116.235,-3590.4,0,0
32127.6,113.869,-3444.8,0,0
33429.2,115.611,-3310.66,0,0
34730.9,113.322,-3193.48,0,0
36032.5,106.917,-3084.03,0,0
37334.1,99.3548,-2977.2,0,0
38635.7,92.2903,-2875.58,0,0
39937.4,87.1658,-2778.95,0,0
41239,84.7747,-2688.27,0,0
42540.6,82.2509,-2603.35,0,0
43842.225,81.8624,-2525.21,0,0
45143.85,78.6358,-2451.01,0,0
46445.475,76.0115,-2380.13,0,0
47747.1,74.9762,-2312.99,0,0
49048.725,72.7051,-2249.92,0,0
50350.35,70.8931,-2189.06,0,0
51651.975,70.0523,-2131.04,0,0
52953.6,69.715,-2076.67,0,0
54255.225,68.3345,-2026.69,0,0
55556.85,65.2978,-1977.19,0,0
56858.475,63.2043,-1928.17,0,0
58160.1,62.3901,-1881.45,0,0
59461.7,62.1968,-1837.73,0,0
60763.3,60.7218,-1794.82,0,0
62065,60.6816,-1753.96,0,0
63366.6,61.2439,-1714.08,0,0
64668.2,62.5985,-1678.24,0,0
65969.8,61.3961,-1643.96,0,0
67271.5,59.2619,-1609.4,0,0
68573.1,58.2978,-1575.42,0,0
69874.7,58.1382,-1542.08,0,0
71176.3,58.4597,-1510.61,0,0
72478,58.705,-1481.1,0,0
73779.6,57.747,-1451.85,0,0
75081.2,57.1946,-1423.37,0,0
76382.825,57.2823,-1395.34,0,0
77684.45,57.1154,-1368.61,0,0
78986.075,56.6759,-1342.12,0,0
80287.7,56.8948,-1316,0,0
81589.325,57.3332,-1290.36,0,0
82890.95,58.8805,-1265.72,0,0
84192.575,60.5938,-1242.33,0,0
85494.2,61.5822,-1221.25,0,0
86795.825,61.4153,-1198.19,0,0
88097.45,63.0003,-1175.59,0,0
89399.075,65.0064,-1153.92,0,0
90700.7,68.1452,-1132.6,0,0
92002.3,73.0834,-1114.17,0,0
93303.9,75.5106,-1099.32,0,0
94605.6,74.6315,-1081.41,0,0
95907.2,76.6832,-1063.89,0,0
97208.8,78.69,-1046.92,0,0
98510.4,81.2225,-1031.91,0,0
99812.1,81.2622,-1018.11,0,0
101114,81.6257,-1003.81,0,0
102415,80.4702,-989.836,0,0
103717,78.9533,-973.891,0,0
105019,78.789,-958.179,0,0
106320.175,79.5895,-942.018,0,0
107621.8,81.2595,-928.139,0,0
108923.425,81.1285,-914.105,0,0
110225.05,81.8726,-900.143,0,0
111526.675,81.9873,-886.797,0,0
112828.3,82.2861,-873.454,0,0
114129.925,82.3605,-860.412,0,0
115431.55,82.2468,-847.227,0,0
116733.175,81.7878,-833.962,0,0
118034.8,82.0366,-820.055,0,0
119336.425,82.8205,-807.279,0,0
120638.05,82.422,-794.467,0,0
121939.675,82.6245,-781.129,0,0
123241,82.9271,-768.407,0,0
124543,83.0697,-754.85,0,0
125845,83.9765,-741.855,0,0
127146,84.7897,-728.917,0,0
128448,85.3752,-716.239,0,0
129749,85.8594,-703.306,0,0
131051,87.1927,-689.721,0,0
132353,87.8755,-677.616,0,0
133654,88.4061,-664.041,0,0
134956,89.6276,-649.537,0,0
136258,93.0822,-636.085,0,0
137559,94.2313,-624.992,0,0
138860.775,93.6348,-610.539,0,0
140162.4,95.2283,-595.198,0,0
141464.025,97.4807,-579.338,0,0
142765.65,100.273,-562.979,0,0
144067.275,104.205,-545.59,0,0
145368.9,110.422,-526.601,0,0
146670.525,120.147,-509.645,0,0
147972.15,129.843,-495.178,0,0
149273.775,138.896,-476.627,0,0
150575.4,155.65,-458.245,0,0
151877.025,180.077,-448.254,0,0
153178.65,196.258,-449.979,0,0
154480,204.525,-448.998,0,0
155782,215.452,-441.987,0,0
157084,225.479,-450.216,0,0
158385,219.941,-440.912,0,0
159687,231.776,-430.074,0,0
160988,234.962,-428.324,0,0
162290,241.254,-413.889,0,0
163592,257.206,-406.976,0,0
164893,269.276,-408.09,0,0
166195,273.156,-416.206,0,0
167497,264.578,-413.709,0,0
168798,258.178,-401.546,0,0
170100,257.002,-383.188,0,0
171401.375,259.454,-362.207,0,0
172703.0,270.11,-335.475,0,0
174004.625,289.262,-316.188,0,0
175306.25,306.215,-302.055,0,0
176607.875,322.124,-281.499,0,0
177909.5,347.771,-261.735,0,0
179211.125,382.321,-244.945,0,0
180512.75,418.871,-239.426,0,0
181814.375,450.337,-239.755,0,0
183116.0,483.59,-241.747,0,0
184417.625,507.418,-247.29,0,0
185719.25,536.096,-242.222,0,0
187021,575.77,-242.401,0,0
188322,619.754,-247.423,0,0
189624,665.418,-271.296,0,0
190926,697.398,-292.426,0,0
192227,743.073,-314.89,0,0
193529,783.908,-339.162,0,0
194831,851.792,-384.664,0,0
196132,903.593,-463.478,0,0
197434,924.477,-573.248,0,0
198735,899.893,-678.538,0,0
200037,849.212,-763.422,0,0
201339,776.673,-820.724,0,0
202640.35,703.696,-856.61,0,0
203941.975,630.84,-858.6,0,0
205243.6,580.734,-847.574,0,0
206545.225,536.955,-832.488,0,0
207846.85,512.428,-807.13,0,0
209148.475,499.234,-790.769,0,0
210450.1,493.997,-777.876,0,0
211751.725,492.142,-774.664,0,0
213053.35,489.303,-778.595,0,0
214354.975,479.159,-787.029,0,0
215656.6,463.497,-791.599,0,0
216958.225,447.343,-788.497,0,0
218259.85,440.63,-781.787,0,0
219561,437.661,-782.029,0,0
220863,435.259,-785.277,0,0
222165,431.808,-792.916,0,0
223466,424.428,-804.97,0,0
224768,413.932,-815.782,0,0
226070,399.602,-830.75,0,0
227371,376.119,-840.933,0,0
228673,350.797,-842.606,0,0
229974,331.794,-842.033,0,0
231276,308.772,-842.98,0,0
232578,283.776,-838.162,0,0
233879,260.822,-828.021,0,0
235180.95,240.543,-813.723,0,0
236482.575,225.885,-796.556,0,0
237784.2,216.116,-779.999,0,0
239085.825,210.605,-764.702,0,0
240387.45,208.803,-755.313,0,0
241689.075,202.272,-750.348,0,0
242990.7,191.482,-742.56,0,0
244292.325,181.886,-730.698,0,0
245593.95,175.036,-717.662,0,0
246895.575,170.944,-704.102,0,0
248197.2,168.164,-693.254,0,0
249498.825,163.929,-681.002,0,0
250800,162.414,-666.723,0,0
252102,165.79,-652.129,0,0
253404,173.033,-643.574,0,0
254705,175.962,-639.005,0,0
256007,177.54,-632.349,0,0
257309,180.278,-624.946,0,0
258610,185.298,-617.95,0,0
259912,191.868,-613.383,0,0
261213,197.818,-611.5,0,0
262515,203.261,-611.233,0,0
263817,206.222,-611.945,0,0
265118,207.878,-610.517,0,0
266420,212.893,-606.652,0,0
267721.55,223.759,-605.463,0,0
269023.175,237.478,-612.451,0,0
270324.8,246.36,-628.6,0,0
271626.425,247.344,-649.647,0,0
272928.05,237.711,-671.232,0,0
274229.675,218.298,-687.601,0,0
275531.3,193.653,-692.91,0,0
276832.925,172.885,-688.483,0,0
278134.55,157.001,-681.058,0,0
279436.175,144.002,-671.785,0,0
280737.8,135.07,-660.068,0,0
282039.425,130.799,-649.523,0,0
283341,129.104,-641.965,0,0
284643,126.325,-636.008,0,0
285944,125.407,-628.869,0,0
287246,128.421,-625.631,0,0
288548,128.523,-629.495,0,0
289849,121.05,-632.686,0,0
291151,111.884,-631.027,0,0
292452,103.358,-627.979,0,0
293754,94.6924,-622.638,0,0
295056,87.281,-615.628,0,0
296357,81.4834,-607.588,0,0
297659,77.174,-599.589,0,0
298960.525,73.7671,-591.515,0,0
300262.15,71.3112,-583.418,0,0
301563.775,70.2257,-575.245,0,0
302865.4,70.6152,-568.177,0,0
304167.025,71.2997,-562.396,0,0
305468.65,72.1326,-557.335,0,0
306770.275,73.16,-553.319,0,0
308071.9,73.9663,-550.189,0,0
309373.525,74.2185,-548.426,0,0
310675.15,72.6322,-546.566,0,0
311976.775,70.8003,-543.933,0,0
313278.4,68.8885,-541.12,0,0
314580,66.5291,-537.993,0,0
315882,64.2316,-534.095,0,0
317183,62.5615,-529.815,0,0
318485,61.6395,-525.649,0,0
319787,61.118,-521.931,0,0
321088,60.7752,-519.013,0,0
322390,59.7055,-516.558,0,0
323691,58.3242,-514.118,0,0
324993,56.194,-511.667,0,0
326295,53.7318,-508.327,0,0
327596,51.6827,-504.553,0,0
328898,49.8806,-500.639,0,0
330200,48.2569,-496.657,0,0
331501.125,46.7161,-492.554,0,0
332802.75,45.4269,-488.094,0,0
334104.375,44.6833,-483.571,0,0
335406.0,44.5014,-479.227,0,0
336707.625,44.6082,-475.446,0,0
338009.25,44.6016,-472.228,0,0
339310.875,44.2756,-469.146,0,0
340612.5,43.7801,-466.155,0,0
341914.125,42.9351,-463.063,0,0
343215.75,42.1144,-459.582,0,0
344517.375,41.4712,-455.971,0,0
345819.0,40.9966,-452.234,0,0
347121,40.8061,-448.428,0,0
348422,40.9496,-444.714,0,0
349724,41.2017,-441.317,0,0
351025,41.5958,-438.003,0,0
352327,42.0222,-434.996,0,0
353629,42.4857,-432.02,0,0
354930,42.9568,-429.314,0,0
356232,43.2744,-426.884,0,0
357534,43.3001,-424.595,0,0
358835,43.0675,-422.086,0,0
360137,42.8386,-419.31,0,0
361438,42.7355,-416.478,0,0
362740.1,42.8106,-413.56,0,0
364041.725,42.9747,-410.479,0,0
365343.35,43.4416,-407.429,0,0
366644.975,44.1873,-404.752,0,0
367946.6,44.6721,-402.285,0,0
369248.225,45.2695,-399.603,0,0
370549.85,46.3596,-396.838,0,0
371851.475,47.6391,-394.935,0,0
373153.1,48.5463,-393.446,0,0
374454.725,48.9719,-392.024,0,0
375756.35,49.2374,-390.395,0,0
377057.975,49.6616,-388.755,0,0
378359.6,49.974,-387.601,0,0
379661,49.4116,-386.178,0,0
380963,49.6383,-383.892,0,0
382264,50.3175,-382.987,0,0
383566,49.5651,-382.478,0,0
384868,48.0837,-381.115,0,0
386169,46.6267,-378.884,0,0
387471,45.6174,-376.148,0,0
388773,44.9973,-373.202,0,0
390074,44.9466,-370.299,0,0
391376,44.9407,-367.683,0,0
392677,44.9363,-365.206,0,0
393979,44.8974,-362.618,0,0
395280.7,45.0417,-359.948,0,0
396582.325,45.3858,-357.304,0,0
397883.95,45.8472,-355.013,0,0
399185.575,46.0276,-352.861,0,0
400006.6,46.0542,-351.429,0,0