Folder: ML_Dmg_Mehdi_Dataset/Accelerated corrosion test data/2025-10-19_06-00-03 (part 3)

File: sample_7.csv
Frequency (Hz),Impedance (ohms),Phase (Radians),Temperature (C),Humidity (%)
10000.0,277.271,-12163.8,0,0
11301.625,249.087,-10759.2,0,0
12603.25,265.843,-9707.63,0,0
13904.875,210.587,-8804.89,0,0
15206.5,199.012,-8060.74,0,0
16508.125,172.874,-7417.42,0,0
17809.75,169.117,-6858.57,0,0
19111.375,181.739,-6408.34,0,0
20413.0,172.43,-6025.49,0,0
21714.625,158.105,-5679.55,0,0
23016.25,130.632,-5350.27,0,0
24317.875,122.917,-5055.1,0,0
25619.5,118.89,-4788.86,0,0
26921.1,121.081,-4542.38,0,0
28222.7,181.237,-4314.66,0,0
29524.4,143.056,-4207.62,0,0
30826,130.432,-4013.57,0,0
32127.6,119.805,-3864.93,0,0
33429.2,101.942,-3714.4,0,0
34730.9,92.8821,-3568.27,0,0
36032.5,88.9079,-3433.31,0,0
37334.1,86.3263,-3308.82,0,0
38635.7,86.8339,-3190.52,0,0
39937.4,100.623,-3090.45,0,0
41239,87.9645,-3004.76,0,0
42540.6,79.7146,-2907.3,0,0
43842.225,78.7408,-2817.05,0,0
45143.85,80.7252,-2739.24,0,0
46445.475,77.5058,-2667.01,0,0
47747.1,70.3318,-2589.56,0,0
49048.725,68.2185,-2518.84,0,0
50350.35,66.0013,-2451.06,0,0
51651.975,64.4176,-2387.25,0,0
52953.6,63.7716,-2326.28,0,0
54255.225,62.2987,-2269.52,0,0
55556.85,60.9051,-2214.49,0,0
56858.475,60.0414,-2161.55,0,0
58160.1,59.2287,-2110.83,0,0
59461.7,59.162,-2063.35,0,0
60763.3,58.8481,-2019.16,0,0
62065,56.7678,-1975.42,0,0
63366.6,55.3908,-1932.36,0,0
64668.2,54.7417,-1891.4,0,0
65969.8,54.7982,-1852.75,0,0
67271.5,53.1572,-1815.83,0,0
68573.1,51.8845,-1778.82,0,0
69874.7,51.2673,-1743.41,0,0
71176.3,51.0184,-1709.5,0,0
72478,50.0882,-1677.05,0,0
73779.6,49.1487,-1645.12,0,0
75081.2,48.5856,-1614.13,0,0
76382.825,48.093,-1584.19,0,0
77684.45,47.785,-1555.13,0,0
78986.075,47.371,-1527.05,0,0
80287.7,47.3376,-1499.93,0,0
81589.325,46.9289,-1473.59,0,0
82890.95,46.6541,-1447.74,0,0
84192.575,46.5254,-1422.42,0,0
85494.2,46.8732,-1398.22,0,0
86795.825,46.9558,-1374.79,0,0
88097.45,46.9889,-1352.02,0,0
89399.075,46.3785,-1329.74,0,0
90700.7,46.3861,-1307.28,0,0
92002.3,46.6531,-1285.53,0,0
93303.9,46.9021,-1263.65,0,0
94605.6,50.4181,-1243.11,0,0
95907.2,49.4818,-1226.76,0,0
97208.8,48.5746,-1206.31,0,0
98510.4,49.6556,-1186.99,0,0
99812.1,49.8218,-1168.65,0,0
101114,50.5961,-1149.19,0,0
102415,52.4151,-1130.94,0,0
103717,54.8673,-1113.91,0,0
105019,56.1915,-1099.12,0,0
106320.175,55.5315,-1083.36,0,0
107621.8,55.9679,-1066.2,0,0
108923.425,57.0014,-1049.8,0,0
110225.05,57.6915,-1032.7,0,0
111526.675,60.5245,-1015.59,0,0
112828.3,65.1299,-998.782,0,0
114129.925,70.6626,-984.453,0,0
115431.55,77.1526,-971.12,0,0
116733.175,86.2091,-961.885,0,0
118034.8,91.6955,-957.285,0,0
119336.425,95.5142,-955.875,0,0
120638.05,89.169,-957.823,0,0
121939.675,76.7199,-948.801,0,0
123241,68.7959,-936.008,0,0
124543,63.5982,-921.213,0,0
125845,59.1837,-907.103,0,0
127146,55.3221,-892.762,0,0
128448,53.2756,-877.319,0,0
129749,51.3766,-862.619,0,0
131051,50.3328,-848.184,0,0
132353,48.9968,-832.783,0,0
133654,49.299,-817.063,0,0
134956,52.2287,-801.893,0,0
136258,55.8095,-790.076,0,0
137559,56.427,-781.474,0,0
138860.775,53.6592,-769.171,0,0
140162.4,53.2788,-754.809,0,0
141464.025,53.5878,-741.089,0,0
142765.65,54.5113,-726.514,0,0
144067.275,57.3699,-712.434,0,0
145368.9,60.0621,-700.754,0,0
146670.525,60.7773,-687.93,0,0
147972.15,62.2179,-675.128,0,0
149273.775,62.2923,-662.692,0,0
150575.4,61.9696,-647.546,0,0
151877.025,62.9681,-630.222,0,0
153178.65,66.106,-611.839,0,0
154480,71.2496,-593.236,0,0
155782,78.8009,-573.993,0,0
157084,89.2057,-555.66,0,0
158385,102.823,-539.936,0,0
159687,115.416,-530.251,0,0
160988,119.737,-518.428,0,0
162290,125.421,-496.272,0,0
163592,140.323,-471.283,0,0
164893,163.658,-448.638,0,0
166195,188.258,-425.514,0,0
167497,230.461,-400.377,0,0
168798,289.326,-391.011,0,0
170100,354.256,-408.641,0,0
171401.375,409.874,-456.2,0,0
172703.0,440.789,-521.158,0,0
174004.625,431.897,-603.444,0,0
175306.25,379.345,-645.216,0,0
176607.875,340.086,-640.443,0,0
177909.5,336.11,-633.527,0,0
179211.125,346.873,-659.106,0,0
180512.75,314.452,-692.272,0,0
181814.375,278.75,-708.106,0,0
183116.0,232.284,-706.99,0,0
184417.625,197.332,-686.359,0,0
185719.25,174.344,-663.922,0,0
187021,156.129,-636.819,0,0
188322,148.787,-609.889,0,0
189624,143.92,-589.831,0,0
190926,136.395,-568.194,0,0
192227,134.216,-543.554,0,0
193529,134.912,-517.836,0,0
194831,140.677,-492.904,0,0
196132,151.053,-470.541,0,0
197434,163.396,-452.11,0,0
198735,173.905,-437.38,0,0
200037,181.281,-420.101,0,0
201339,192.381,-398.028,0,0
202640.35,209.386,-373.489,0,0
203941.975,234.22,-351.497,0,0
205243.6,263.532,-332.65,0,0
206545.225,303.636,-319.306,0,0
207846.85,339.885,-321.02,0,0
209148.475,372.908,-314.722,0,0
210450.1,427.747,-315.782,0,0
211751.725,479.759,-349.246,0,0
213053.35,510.619,-394.002,0,0
214354.975,530.713,-433.334,0,0
215656.6,542.47,-480.958,0,0
216958.225,545.832,-530.615,0,0
218259.85,527,-580.872,0,0
219561,489.647,-621.341,0,0
220863,444.851,-627.496,0,0
222165,419.399,-618.363,0,0
223466,408.853,-609.404,0,0
224768,403.971,-605.254,0,0
226070,401.071,-598.848,0,0
227371,409.58,-597.457,0,0
228673,419.202,-606.581,0,0
229974,425.579,-623.258,0,0
231276,426.891,-646.76,0,0
232578,419.946,-671.551,0,0
233879,400.864,-704.344,0,0
235180.95,360.081,-723.385,0,0
236482.575,321.623,-717.354,0,0
237784.2,299.492,-707.25,0,0
239085.825,274.592,-693.23,0,0
240387.45,265.729,-674.143,0,0
241689.075,261.353,-669.894,0,0
242990.7,243.718,-662.229,0,0
244292.325,233.548,-643.339,0,0
245593.95,236.72,-629.036,0,0
246895.575,234.67,-625.034,0,0
248197.2,227.046,-616.668,0,0
249498.825,222.797,-603.07,0,0
250800,222.789,-587.821,0,0
252102,229.885,-572.637,0,0
253404,244.055,-563.006,0,0
254705,260.063,-564.803,0,0
256007,267.666,-574.467,0,0
257309,267.366,-583.035,0,0
258610,263.162,-586.194,0,0
259912,261.472,-588.451,0,0
261213,257.459,-589.529,0,0
262515,254.302,-586.141,0,0
263817,259.358,-583.209,0,0
265118,262.771,-590.288,0,0
266420,259.989,-594.028,0,0
267721.55,260.536,-599.079,0,0
269023.175,254.273,-606.251,0,0
270324.8,248.635,-605.962,0,0
271626.425,250.225,-604.73,0,0
272928.05,259.12,-616.305,0,0
274229.675,251.013,-643.752,0,0
275531.3,221.995,-661.912,0,0
276832.925,185.735,-660.348,0,0
278134.55,157.076,-642.696,0,0
279436.175,142.258,-618.672,0,0
280737.8,137.424,-597.292,0,0
282039.425,136.825,-582.727,0,0
283341,132.833,-568.705,0,0
284643,133.703,-550.883,0,0
285944,140.927,-536.262,0,0
287246,150.453,-528.609,0,0
288548,155.072,-526.158,0,0
289849,155.526,-520.691,0,0
291151,157.462,-511.802,0,0
292452,162.995,-503.355,0,0
293754,169.987,-495.522,0,0
295056,178.52,-489.025,0,0
296357,189.394,-483.17,0,0
297659,203.012,-479.816,0,0
298960.525,218.672,-480.144,0,0
300262.15,235.693,-484.719,0,0
301563.775,254.515,-495.092,0,0
302865.4,274.07,-517.627,0,0
304167.025,276.695,-553.801,0,0
305468.65,261.883,-581.61,0,0
306770.275,241.497,-600.905,0,0
308071.9,218.201,-611.413,0,0
309373.525,194.531,-614.124,0,0
310675.15,174.92,-609.896,0,0
311976.775,159.823,-603.573,0,0
313278.4,147.358,-597.091,0,0
314580,135.71,-589.087,0,0
315882,126.956,-579.097,0,0
317183,121.661,-569.527,0,0
318485,118.041,-561.385,0,0
319787,115.496,-553.781,0,0
321088,114.189,-547.878,0,0
322390,112.522,-542.991,0,0
323691,110.977,-538.457,0,0
324993,109.515,-534.493,0,0
326295,108.327,-530.695,0,0
327596,107.635,-528.117,0,0
328898,105.781,-526.823,0,0
330200,102.923,-525.257,0,0
331501.125,99.5149,-523.903,0,0
332802.75,94.6489,-522.251,0,0
334104.375,88.9694,-519.14,0,0
335406.0,83.6427,-514.691,0,0
336707.625,78.5319,-509.552,0,0
338009.25,74.1376,-503.253,0,0
339310.875,70.8424,-496.639,0,0
340612.5,68.1538,-489.992,0,0
341914.125,65.9691,-482.963,0,0
343215.75,64.9311,-475.83,0,0
344517.375,65.0214,-468.949,0,0
345819.0,66.1428,-463.278,0,0
347121,66.8889,-459.305,0,0
348422,66.1085,-455.694,0,0
349724,64.5535,-450.783,0,0
351025,63.4786,-445.131,0,0
352327,63.3195,-438.537,0,0
353629,64.8518,-432.121,0,0
354930,67.4975,-427.186,0,0
356232,69.8089,-423.951,0,0
357534,70.5956,-421.649,0,0
358835,69.6245,-418.493,0,0
360137,68.7526,-413.297,0,0
361438,69.3564,-407.398,0,0
362740.1,71.1339,-401.356,0,0
364041.725,74.2064,-396.008,0,0
365343.35,77.9233,-391.796,0,0
366644.975,81.5583,-388.96,0,0
367946.6,84.409,-386.471,0,0
369248.225,87.5422,-384.279,0,0
370549.85,90.3159,-383.095,0,0
371851.475,91.5235,-382.51,0,0
373153.1,91.6733,-380.359,0,0
374454.725,92.8613,-377.16,0,0
375756.35,94.7376,-374.582,0,0
377057.975,96.4634,-372.453,0,0
378359.6,97.5435,-370.049,0,0
379661,99.1351,-366.972,0,0
380963,101.258,-364.096,0,0
382264,103.535,-361.413,0,0
383566,106.109,-358.927,0,0
384868,108.508,-356.616,0,0
386169,111.012,-354.505,0,0
387471,113.343,-352.053,0,0
388773,115.558,-348.993,0,0
390074,119.467,-345.067,0,0
391376,124.784,-342.572,0,0
392677,129.778,-340.984,0,0
393979,134.848,-339.84,0,0
395280.7,139.805,-338.3,0,0
396582.325,146.245,-336.212,0,0
397883.95,155.467,-334.595,0,0
399185.575,168.087,-336.546,0,0
400006.6,176.795,-341.166,0,0

File: sample_8.csv
Frequency (Hz),Impedance (ohms),Phase (Radians),Temperature (C),Humidity (%)
10000.0,306.825,-11059.1,0,0
11301.625,272.193,-9800.18,0,0
12603.25,251,-8800.83,0,0
13904.875,222.477,-7994.09,0,0
15206.5,202.615,-7314.57,0,0
16508.125,187.202,-6743.13,0,0
17809.75,173.995,-6252.75,0,0
19111.375,166.144,-5826.5,0,0
20413.0,159.691,-5462.45,0,0
21714.625,148.329,-5140.17,0,0
23016.25,143.22,-4854.5,0,0
24317.875,131.385,-4595.94,0,0
25619.5,124.411,-4360.9,0,0
26921.1,119.812,-4148.18,0,0
28222.7,116.958,-3957,0,0
29524.4,113.301,-3783.22,0,0
30826,109.273,-3624.46,0,0
32127.6,105.287,-3475.04,0,0
33429.2,105.182,-3337.24,0,0
34730.9,106.123,-3211.66,0,0
36032.5,109.659,-3099.95,0,0
37334.1,106.329,-3000.04,0,0
38635.7,95.9527,-2902.84,0,0
39937.4,88.1928,-2805,0,0
41239,85.4809,-2714.03,0,0
42540.6,82.0102,-2628.49,0,0
43842.225,81.7176,-2550.11,0,0
45143.85,77.028,-2475.08,0,0
46445.475,74.2514,-2403.53,0,0
47747.1,72.2534,-2335.56,0,0
49048.725,70.3196,-2271.6,0,0
50350.35,68.4507,-2210.15,0,0
51651.975,67.324,-2151.58,0,0
52953.6,66.7517,-2096.32,0,0
54255.225,66.0054,-2045.95,0,0
55556.85,62.9838,-1996.26,0,0
56858.475,60.9384,-1947.03,0,0
58160.1,59.8344,-1900.15,0,0
59461.7,59.112,-1855.94,0,0
60763.3,57.8387,-1812.93,0,0
62065,57.4248,-1771.78,0,0
63366.6,57.724,-1731.89,0,0
64668.2,57.9732,-1695.42,0,0
65969.8,57.1707,-1659.82,0,0
67271.5,55.3486,-1625.25,0,0
68573.1,54.3503,-1591.11,0,0
69874.7,53.954,-1557.73,0,0
71176.3,54.0474,-1526.08,0,0
72478,53.914,-1496.01,0,0
73779.6,53.1509,-1466.59,0,0
75081.2,52.2652,-1437.94,0,0
76382.825,51.9876,-1409.68,0,0
77684.45,51.572,-1382.72,0,0
78986.075,50.9344,-1356.25,0,0
80287.7,50.3137,-1329.99,0,0
81589.325,50.3531,-1304,0,0
82890.95,51.1284,-1278.88,0,0
84192.575,52.4129,-1255.05,0,0
85494.2,52.5359,-1233.06,0,0
86795.825,52.0588,-1209.51,0,0
88097.45,52.7749,-1186.62,0,0
89399.075,53.432,-1164.02,0,0
90700.7,55.1895,-1141.02,0,0
92002.3,59.3872,-1120.1,0,0
93303.9,61.5622,-1101.27,0,0
94605.6,63.4562,-1082.21,0,0
95907.2,64.9792,-1062.6,0,0
97208.8,68.31,-1042.9,0,0
98510.4,73.1986,-1024.2,0,0
99812.1,78.5376,-1008.8,0,0
101114,83.9894,-994.49,0,0
102415,88.0019,-983.42,0,0
103717,88.0767,-972.857,0,0
105019,87.2634,-960.971,0,0
106320.175,85.9562,-946.572,0,0
107621.8,86.0322,-933.005,0,0
108923.425,85.4343,-918.068,0,0
110225.05,87.3705,-904.052,0,0
111526.675,88.1669,-891.302,0,0
112828.3,89.0822,-879.209,0,0
114129.925,89.105,-867.167,0,0
115431.55,89.5029,-855.066,0,0
116733.175,88.2164,-843.165,0,0
118034.8,88.3068,-830.314,0,0
119336.425,88.3924,-818.191,0,0
120638.05,87.7436,-806.435,0,0
121939.675,87.2764,-794.277,0,0
123241,86.633,-782.359,0,0
124543,85.549,-770.445,0,0
125845,84.0256,-757.797,0,0
127146,82.6386,-744.285,0,0
128448,82.0342,-730.306,0,0
129749,81.8054,-716.489,0,0
131051,82.6497,-701.644,0,0
132353,83.9549,-688.721,0,0
133654,84.4434,-675.734,0,0
134956,84.9185,-661.307,0,0
136258,87.6352,-647.58,0,0
137559,87.8568,-635.897,0,0
138860.775,86.8961,-620.398,0,0
140162.4,88.8166,-604.139,0,0
141464.025,91.2296,-588.348,0,0
142765.65,93.6154,-571.678,0,0
144067.275,97.9574,-553.831,0,0
145368.9,103.947,-535.406,0,0
146670.525,112.192,-517.508,0,0
147972.15,121.937,-501.556,0,0
149273.775,131.519,-481.949,0,0
150575.4,148.956,-461.352,0,0
151877.025,175.627,-449.821,0,0
153178.65,198.228,-450.638,0,0
154480,210.352,-456.052,0,0
155782,222.342,-453.864,0,0
157084,230.632,-468.97,0,0
158385,221.021,-464.085,0,0
159687,228.712,-458.091,0,0
160988,224.377,-459.718,0,0
162290,223.161,-443.787,0,0
163592,232.559,-435.659,0,0
164893,239.295,-431.295,0,0
166195,241.935,-434.177,0,0
167497,232.76,-430.574,0,0
168798,223.504,-418.494,0,0
170100,216.867,-398.024,0,0
171401.375,215.134,-373.894,0,0
172703.0,220.1,-344.377,0,0
174004.625,233.189,-317.124,0,0
175306.25,246.603,-295.277,0,0
176607.875,261.325,-266.324,0,0
177909.5,282.233,-239.242,0,0
179211.125,312.109,-206.592,0,0
180512.75,351.567,-181.519,0,0
181814.375,396.951,-159.932,0,0
183116.0,452.721,-153.356,0,0
184417.625,499.097,-158.411,0,0
185719.25,551.044,-159.344,0,0
187021,603.696,-180.893,0,0
188322,641.534,-206.466,0,0
189624,675.774,-233.426,0,0
190926,700.874,-253.462,0,0
192227,740.382,-272.501,0,0
193529,770.944,-283.843,0,0
194831,843.778,-302.583,0,0
196132,919.038,-363.247,0,0
197434,976.829,-465.495,0,0
198735,991.129,-594.398,0,0
200037,946.577,-715.406,0,0
201339,873.59,-790.432,0,0
202640.35,794.373,-851.841,0,0
203941.975,702.865,-863.773,0,0
205243.6,640.188,-852.068,0,0
206545.225,591.141,-829.803,0,0
207846.85,571.338,-799.941,0,0
209148.475,565.051,-787.968,0,0
210450.1,559.284,-778.799,0,0
211751.725,564.308,-777.264,0,0
213053.35,567.618,-790.53,0,0
214354.975,560.07,-809.168,0,0
215656.6,549.079,-825.048,0,0
216958.225,535.027,-842.669,0,0
218259.85,518.119,-859.612,0,0
219561,493.258,-879.19,0,0
220863,459.044,-892.049,0,0
222165,423.383,-890.005,0,0
223466,395.049,-879.293,0,0
224768,378.225,-865.592,0,0
226070,370.099,-858.02,0,0
227371,360.459,-859.486,0,0
228673,345.663,-861.401,0,0
229974,331.177,-864.197,0,0
231276,310.109,-869.159,0,0
232578,284.258,-867.741,0,0
233879,256.818,-861.685,0,0
235180.95,229.961,-846.25,0,0
236482.575,210.861,-825.173,0,0
237784.2,198.459,-804.113,0,0
239085.825,190.583,-783.207,0,0
240387.45,189.588,-766.145,0,0
241689.075,189.584,-755.442,0,0
242990.7,184.3,-748.041,0,0
244292.325,177.965,-737.136,0,0
245593.95,173.818,-725.464,0,0
246895.575,171.739,-713.595,0,0
248197.2,170.046,-704.49,0,0
249498.825,167.889,-694.566,0,0
250800,167.364,-684.471,0,0
252102,169.216,-675.291,0,0
253404,172.106,-669.832,0,0
254705,171.969,-667.438,0,0
256007,168.354,-664.233,0,0
257309,162.495,-657.981,0,0
258610,158.627,-647.213,0,0
259912,159.318,-635.641,0,0
261213,162.108,-626.87,0,0
262515,165.494,-619.291,0,0
263817,167.932,-611.69,0,0
265118,171.433,-602.705,0,0
266420,178.771,-591.463,0,0
267721.55,193.931,-582.004,0,0
269023.175,214.964,-581.433,0,0
270324.8,235.422,-590.282,0,0
271626.425,253.001,-610.82,0,0
272928.05,259.433,-640.784,0,0
274229.675,247.549,-674.477,0,0
275531.3,218.542,-694.113,0,0
276832.925,190.201,-697.223,0,0
278134.55,167.01,-691.879,0,0
279436.175,148.809,-681.981,0,0
280737.8,137.035,-668.419,0,0
282039.425,131.655,-656.956,0,0
283341,128.258,-648.509,0,0
284643,124.619,-640.848,0,0
285944,123.937,-632.436,0,0
287246,127.579,-627.58,0,0
288548,130.641,-631.216,0,0
289849,124.853,-638.087,0,0
291151,112.717,-639.624,0,0
292452,101.095,-636.241,0,0
293754,90.7306,-629.85,0,0
295056,81.949,-621.568,0,0
296357,75.4896,-612.061,0,0
297659,70.8504,-602.877,0,0
298960.525,67.071,-593.548,0,0
300262.15,64.6913,-584.003,0,0
301563.775,63.8606,-574.615,0,0
302865.4,64.8135,-566.009,0,0
304167.025,66.7768,-559.13,0,0
305468.65,68.9226,-553.584,0,0
306770.275,71.1987,-549.507,0,0
308071.9,72.7314,-546.497,0,0
309373.525,73.7744,-544.759,0,0
310675.15,72.7829,-542.979,0,0
311976.775,71.8026,-540.262,0,0
313278.4,70.8566,-537.93,0,0
314580,69.0368,-535.558,0,0
315882,67.0664,-532.399,0,0
317183,65.4676,-528.504,0,0
318485,64.4668,-524.963,0,0
319787,63.5932,-521.321,0,0
321088,63.4648,-518.153,0,0
322390,62.918,-515.929,0,0
323691,61.7041,-514.021,0,0
324993,59.6366,-512.086,0,0
326295,56.9754,-509.123,0,0
327596,54.8034,-505.653,0,0
328898,52.7536,-502.088,0,0
330200,50.6666,-498.196,0,0
331501.125,48.8624,-493.837,0,0
332802.75,47.387,-489.274,0,0
334104.375,46.4851,-484.479,0,0
335406.0,46.557,-479.801,0,0
336707.625,47.0331,-476.085,0,0
338009.25,47.2613,-473.095,0,0
339310.875,46.868,-470.467,0,0
340612.5,45.9568,-467.61,0,0
341914.125,44.7126,-464.468,0,0
343215.75,43.5789,-460.705,0,0
344517.375,42.7265,-456.704,0,0
345819.0,42.2773,-452.488,0,0
347121,42.1647,-448.22,0,0
348422,42.4339,-444.134,0,0
349724,42.9405,-440.143,0,0
351025,43.8015,-436.193,0,0
352327,45.0887,-432.665,0,0
353629,46.503,-429.61,0,0
354930,47.777,-427.071,0,0
356232,48.9152,-424.751,0,0
357534,49.8273,-422.698,0,0
358835,50.4312,-420.637,0,0
360137,51.0584,-418.57,0,0
361438,51.7057,-416.481,0,0
362740.1,52.3333,-414.681,0,0
364041.725,52.7552,-412.977,0,0
365343.35,53.056,-411.208,0,0
366644.975,53.2562,-409.525,0,0
367946.6,53.3247,-407.643,0,0
369248.225,53.4122,-405.524,0,0
370549.85,54.1338,-403.298,0,0
371851.475,55.2343,-401.896,0,0
373153.1,55.8542,-401.141,0,0
374454.725,55.7404,-400.592,0,0
375756.35,54.9223,-399.711,0,0
377057.975,54.1066,-398.139,0,0
378359.6,53.5812,-396.761,0,0
379661,52.3627,-395.149,0,0
380963,51.9162,-392.444,0,0
382264,52.5337,-391.037,0,0
383566,51.7891,-390.415,0,0
384868,50.2728,-389.267,0,0
386169,48.4506,-387.344,0,0
387471,46.8325,-384.752,0,0
388773,45.6142,-381.727,0,0
390074,44.9751,-378.51,0,0
391376,44.6911,-375.584,0,0
392677,44.3598,-372.816,0,0
393979,44.0269,-369.995,0,0
395280.7,43.8437,-366.988,0,0
396582.325,43.9841,-364.007,0,0
397883.95,44.336,-361.297,0,0
399185.575,44.5926,-358.737,0,0
400006.6,44.6837,-357.167,0,0