Folder: ML_Dmg_Mehdi_Dataset/Accelerated corrosion test data/2025-10-16_18-00-04 (part 3)

File: sample_7.csv
Frequency (Hz),Impedance (ohms),Phase (Radians),Temperature (C),Humidity (%)
10000.0,272.913,-12077,0,0
11301.625,246.56,-10684.4,0,0
12603.25,256.01,-9633.46,0,0
13904.875,209.297,-8740.39,0,0
15206.5,194.413,-8005.14,0,0
16508.125,171.217,-7364.61,0,0
17809.75,170.564,-6810.88,0,0
19111.375,180.489,-6369.44,0,0
20413.0,168.148,-5974.88,0,0
21714.625,157.003,-5634.68,0,0
23016.25,130.25,-5312.04,0,0
24317.875,122.543,-5019.42,0,0
25619.5,118.555,-4755.57,0,0
26921.1,122.516,-4511.82,0,0
28222.7,177.407,-4300.47,0,0
29524.4,139.688,-4168.89,0,0
30826,132.548,-3984.86,0,0
32127.6,117.469,-3837.32,0,0
33429.2,101.582,-3686.53,0,0
34730.9,92.2017,-3541.94,0,0
36032.5,88.2408,-3408.5,0,0
37334.1,86.3,-3285.02,0,0
38635.7,86.6289,-3167.91,0,0
39937.4,98.2825,-3068.09,0,0
41239,86.9289,-2981.16,0,0
42540.6,80.2278,-2885.14,0,0
43842.225,79.0403,-2796.65,0,0
45143.85,80.3008,-2719,0,0
46445.475,77.2886,-2646.66,0,0
47747.1,70.7108,-2570.36,0,0
49048.725,68.0525,-2499.98,0,0
50350.35,66.1788,-2433.13,0,0
51651.975,64.5762,-2369.48,0,0
52953.6,63.7784,-2309.08,0,0
54255.225,62.3295,-2252.54,0,0
55556.85,60.8861,-2197.82,0,0
56858.475,60.2014,-2145.51,0,0
58160.1,59.2866,-2095.05,0,0
59461.7,59.5266,-2047.63,0,0
60763.3,59.0921,-2003.93,0,0
62065,57.0073,-1960.56,0,0
63366.6,55.6933,-1917.8,0,0
64668.2,54.9733,-1877.29,0,0
65969.8,55.0487,-1838.76,0,0
67271.5,53.3085,-1802.16,0,0
68573.1,52.051,-1765.43,0,0
69874.7,51.4824,-1730.12,0,0
71176.3,51.3406,-1696.5,0,0
72478,50.2787,-1664.36,0,0
73779.6,49.4316,-1632.54,0,0
75081.2,48.88,-1601.81,0,0
76382.825,48.3787,-1572.07,0,0
77684.45,48.1489,-1543.23,0,0
78986.075,47.7695,-1515.33,0,0
80287.7,47.6426,-1488.33,0,0
81589.325,47.3009,-1462,0,0
82890.95,47.0278,-1436.44,0,0
84192.575,47.0572,-1411.27,0,0
85494.2,47.2722,-1387.24,0,0
86795.825,47.2349,-1363.88,0,0
88097.45,47.4113,-1341.33,0,0
89399.075,47.0018,-1319.05,0,0
90700.7,47.1841,-1296.78,0,0
92002.3,47.5286,-1275.19,0,0
93303.9,48.1821,-1254.09,0,0
94605.6,49.9957,-1234.25,0,0
95907.2,49.989,-1216.31,0,0
97208.8,49.427,-1196.83,0,0
98510.4,50.2463,-1177.44,0,0
99812.1,49.7709,-1158.85,0,0
101114,51.4276,-1139.82,0,0
102415,53.0454,-1121.66,0,0
103717,55.803,-1105.1,0,0
105019,56.7131,-1090.01,0,0
106320.175,56.1201,-1073.78,0,0
107621.8,57.2416,-1057.53,0,0
108923.425,58.4084,-1041.31,0,0
110225.05,58.8868,-1024.71,0,0
111526.675,62.2822,-1007.93,0,0
112828.3,66.7349,-991.665,0,0
114129.925,72.0521,-977.87,0,0
115431.55,78.1611,-965.513,0,0
116733.175,86.0249,-957.304,0,0
118034.8,89.3128,-952.256,0,0
119336.425,91.601,-949.835,0,0
120638.05,84.4517,-949.2,0,0
121939.675,74.0009,-938.467,0,0
123241,66.8816,-925.531,0,0
124543,62.4823,-910.642,0,0
125845,58.638,-896.78,0,0
127146,55.383,-881.938,0,0
128448,53.7193,-867.167,0,0
129749,52.2678,-852.693,0,0
131051,50.9997,-838.216,0,0
132353,50.3619,-822.952,0,0
133654,50.8179,-807.384,0,0
134956,53.571,-792.662,0,0
136258,58.1306,-779.651,0,0
137559,58.7541,-772.127,0,0
138860.775,56.3044,-759.814,0,0
140162.4,56.5715,-745.916,0,0
141464.025,56.3616,-732.539,0,0
142765.65,57.5088,-718.016,0,0
144067.275,60.2024,-704.672,0,0
145368.9,61.7444,-692.266,0,0
146670.525,62.9233,-678.989,0,0
147972.15,64.5612,-665.634,0,0
149273.775,65.3316,-652.591,0,0
150575.4,65.8336,-636.901,0,0
151877.025,68.1365,-619.571,0,0
153178.65,72.643,-601.649,0,0
154480,78.8728,-583.602,0,0
155782,87.4631,-565.587,0,0
157084,98.6211,-548.738,0,0
158385,111.859,-535.12,0,0
159687,121.408,-525.782,0,0
160988,125.346,-511.253,0,0
162290,134.235,-487.04,0,0
163592,152.679,-461.64,0,0
164893,179.603,-440.975,0,0
166195,210.132,-419.271,0,0
167497,258.497,-402.485,0,0
168798,319.986,-406.509,0,0
170100,376.448,-440.962,0,0
171401.375,413.482,-496.947,0,0
172703.0,424.923,-564.145,0,0
174004.625,392.323,-627.074,0,0
175306.25,341.97,-640.206,0,0
176607.875,320.897,-627.77,0,0
177909.5,328.915,-627.192,0,0
179211.125,329.455,-664.575,0,0
180512.75,296.377,-685.595,0,0
181814.375,258.485,-698.091,0,0
183116.0,215.085,-688.665,0,0
184417.625,186.081,-666.348,0,0
185719.25,166.988,-643.518,0,0
187021,153.039,-616.414,0,0
188322,149.481,-591.692,0,0
189624,143.573,-573.914,0,0
190926,137.784,-551.437,0,0
192227,137.129,-527.361,0,0
193529,139.446,-502.694,0,0
194831,145.508,-478.454,0,0
196132,156.541,-457.519,0,0
197434,168.117,-439.48,0,0
198735,176.914,-422.603,0,0
200037,186.836,-401.599,0,0
201339,201.845,-378.486,0,0
202640.35,223.578,-353.672,0,0
203941.975,252.713,-332.838,0,0
205243.6,288.603,-314.591,0,0
206545.225,334.73,-310.786,0,0
207846.85,369.016,-318.087,0,0
209148.475,406.504,-314.311,0,0
210450.1,466.402,-327.57,0,0
211751.725,511.779,-376.501,0,0
213053.35,532.126,-430.276,0,0
214354.975,534.655,-476.929,0,0
215656.6,527.56,-517.845,0,0
216958.225,521.923,-555.634,0,0
218259.85,497.591,-592.198,0,0
219561,462.519,-615.808,0,0
220863,429.067,-615.651,0,0
222165,410.682,-604.676,0,0
223466,406.059,-596.715,0,0
224768,403.416,-593.807,0,0
226070,407.838,-586.773,0,0
227371,419.4,-591.574,0,0
228673,432.32,-605.368,0,0
229974,436.72,-628.314,0,0
231276,433.263,-659.011,0,0
232578,419.652,-687.598,0,0
233879,390.36,-716.967,0,0
235180.95,346.083,-727.575,0,0
236482.575,311.531,-715.78,0,0
237784.2,287.076,-705.859,0,0
239085.825,263.588,-686.555,0,0
240387.45,260.151,-666.219,0,0
241689.075,253.268,-661.168,0,0
242990.7,239.051,-649.829,0,0
244292.325,231.695,-630.523,0,0
245593.95,235.805,-616.81,0,0
246895.575,235.54,-609.06,0,0
248197.2,234.695,-598.796,0,0
249498.825,236.83,-587.584,0,0
250800,243.178,-577.175,0,0
252102,253.392,-570.308,0,0
253404,267.494,-571.165,0,0
254705,275.249,-581.439,0,0
256007,273.68,-592.299,0,0
257309,266.634,-598.336,0,0
258610,259.322,-598.311,0,0
259912,254.459,-597.991,0,0
261213,248.255,-593.648,0,0
262515,247.7,-585.536,0,0
263817,255.286,-582.899,0,0
265118,259.667,-588.893,0,0
266420,257.799,-593.37,0,0
267721.55,256.665,-597.977,0,0
269023.175,251.933,-600.928,0,0
270324.8,251.289,-599.324,0,0
271626.425,258.771,-602.565,0,0
272928.05,265.786,-623.855,0,0
274229.675,249.581,-652.15,0,0
275531.3,215.961,-666.918,0,0
276832.925,179.35,-660.295,0,0
278134.55,153.638,-638.936,0,0
279436.175,142.221,-615.402,0,0
280737.8,139.07,-595.21,0,0
282039.425,138.787,-582.217,0,0
283341,135.528,-569.075,0,0
284643,136.543,-553.213,0,0
285944,142.224,-540.964,0,0
287246,147.955,-533.475,0,0
288548,150.397,-527.072,0,0
289849,153.39,-518.283,0,0
291151,159.424,-509.123,0,0
292452,166.933,-502.875,0,0
293754,175.137,-497.642,0,0
295056,183.778,-493.403,0,0
296357,194.384,-490.4,0,0
297659,207.13,-489.866,0,0
298960.525,220.252,-493.585,0,0
300262.15,233.865,-500.559,0,0
301563.775,248.288,-513.114,0,0
302865.4,259.283,-537.228,0,0
304167.025,253.332,-565.773,0,0
305468.65,237.528,-585.792,0,0
306770.275,217.272,-598.402,0,0
308071.9,196.41,-602.99,0,0
309373.525,177.058,-601.329,0,0
310675.15,162.438,-595.099,0,0
311976.775,151.628,-588.994,0,0
313278.4,141.746,-582.969,0,0
314580,132.876,-575.271,0,0
315882,127.246,-566.449,0,0
317183,124.125,-559.346,0,0
318485,121.346,-553.647,0,0
319787,119.061,-548.433,0,0
321088,116.988,-544.43,0,0
322390,114.56,-540.759,0,0
323691,111.945,-537.41,0,0
324993,108.976,-533.613,0,0
326295,107.204,-530.057,0,0
327596,104.997,-527.73,0,0
328898,101.909,-525.397,0,0
330200,98.5318,-522.711,0,0
331501.125,94.8795,-520.144,0,0
332802.75,90.5368,-517.357,0,0
334104.375,85.4625,-513.621,0,0
335406.0,80.7525,-508.742,0,0
336707.625,76.3832,-503.051,0,0
338009.25,72.7363,-496.549,0,0
339310.875,69.9701,-490.016,0,0
340612.5,67.845,-483.215,0,0
341914.125,66.5762,-476.184,0,0
343215.75,66.3191,-469.401,0,0
344517.375,66.9995,-463.17,0,0
345819.0,68.0444,-458.133,0,0
347121,68.6305,-454.097,0,0
348422,68.2373,-450.181,0,0
349724,67.3804,-445.307,0,0
351025,66.9493,-439.779,0,0
352327,67.6326,-433.558,0,0
353629,69.8403,-428.161,0,0
354930,72.3501,-424.024,0,0
356232,74.7635,-421.386,0,0
357534,75.2945,-419.53,0,0
358835,74.4268,-416.301,0,0
360137,74.1914,-411.362,0,0
361438,75.2885,-405.99,0,0
362740.1,77.5994,-401.156,0,0
364041.725,80.2654,-396.884,0,0
365343.35,83.7952,-393.185,0,0
366644.975,87.3307,-391.109,0,0
367946.6,90.1495,-389.57,0,0
369248.225,92.6853,-388.597,0,0
370549.85,94.3538,-388.651,0,0
371851.475,93.5298,-388.208,0,0
373153.1,92.6845,-385.277,0,0
374454.725,93.3596,-381.616,0,0
375756.35,94.8343,-378.581,0,0
377057.975,96.0171,-376,0,0
378359.6,97.0966,-372.552,0,0
379661,99.2642,-368.985,0,0
380963,101.906,-366.122,0,0
382264,104.367,-363.409,0,0
383566,107.406,-360.726,0,0
384868,110.72,-358.615,0,0
386169,113.647,-356.97,0,0
387471,116.603,-355.085,0,0
388773,119.681,-352.625,0,0
390074,124.576,-350.498,0,0
391376,129.472,-349.998,0,0
392677,133.788,-350.01,0,0
393979,137.838,-349.936,0,0
395280.7,142.491,-349.304,0,0
396582.325,149.227,-349.145,0,0
397883.95,157.712,-351.692,0,0
399185.575,166.04,-358.35,0,0
400006.6,169.846,-364.953,0,0

File: sample_8.csv
Frequency (Hz),Impedance (ohms),Phase (Radians),Temperature (C),Humidity (%)
10000.0,311.867,-10943.6,0,0
11301.625,276.003,-9698.53,0,0
12603.25,253.601,-8709.53,0,0
13904.875,225.258,-7909.93,0,0
15206.5,204.913,-7238.37,0,0
16508.125,189.007,-6673.46,0,0
17809.75,175.732,-6187.9,0,0
19111.375,167.793,-5766.81,0,0
20413.0,160.641,-5406.1,0,0
21714.625,150.053,-5086.73,0,0
23016.25,143.844,-4805.11,0,0
24317.875,132.142,-4548.72,0,0
25619.5,125.515,-4316.42,0,0
26921.1,120.547,-4106,0,0
28222.7,117.401,-3916.65,0,0
29524.4,113.627,-3744.05,0,0
30826,109.598,-3587.08,0,0
32127.6,105.616,-3439.36,0,0
33429.2,105.364,-3302.79,0,0
34730.9,106.173,-3178.55,0,0
36032.5,109.34,-3067.92,0,0
37334.1,105.916,-2968.43,0,0
38635.7,96.165,-2871.8,0,0
39937.4,88.3142,-2775.78,0,0
41239,85.4307,-2685.44,0,0
42540.6,82.4491,-2600.47,0,0
43842.225,81.5676,-2523.26,0,0
45143.85,77.5747,-2448.78,0,0
46445.475,75.0383,-2377.87,0,0
47747.1,72.5006,-2310.45,0,0
49048.725,70.9016,-2247.52,0,0
50350.35,68.9777,-2186.78,0,0
51651.975,68.0292,-2128.7,0,0
52953.6,67.6777,-2074.17,0,0
54255.225,66.4928,-2024.32,0,0
55556.85,63.3783,-1974.99,0,0
56858.475,61.341,-1926.17,0,0
58160.1,60.3218,-1879.78,0,0
59461.7,59.7967,-1836.11,0,0
60763.3,58.3687,-1793.49,0,0
62065,57.9964,-1752.71,0,0
63366.6,58.2171,-1713.17,0,0
64668.2,58.9482,-1676.65,0,0
65969.8,58.0285,-1642.01,0,0
67271.5,56.0619,-1607.53,0,0
68573.1,55.149,-1573.68,0,0
69874.7,54.9152,-1540.64,0,0
71176.3,54.8359,-1509.15,0,0
72478,55.0537,-1479.48,0,0
73779.6,54.2936,-1450.51,0,0
75081.2,53.4194,-1422.05,0,0
76382.825,53.2357,-1394.09,0,0
77684.45,52.82,-1367.46,0,0
78986.075,52.2221,-1341.16,0,0
80287.7,51.8306,-1315.08,0,0
81589.325,51.8665,-1289.38,0,0
82890.95,52.7458,-1264.43,0,0
84192.575,54.0111,-1240.66,0,0
85494.2,54.8981,-1219.15,0,0
86795.825,54.3919,-1195.96,0,0
88097.45,55.222,-1173.54,0,0
89399.075,55.8972,-1151.21,0,0
90700.7,57.9233,-1128.71,0,0
92002.3,62.1002,-1107.78,0,0
93303.9,65.8787,-1090,0,0
94605.6,65.8341,-1072.16,0,0
95907.2,67.678,-1052.52,0,0
97208.8,71.481,-1033.36,0,0
98510.4,76.3286,-1016.1,0,0
99812.1,81.0883,-1001.95,0,0
101114,84.9305,-988.955,0,0
102415,86.5951,-977.564,0,0
103717,85.7528,-965.72,0,0
105019,85.061,-952.382,0,0
106320.175,84.4616,-937.997,0,0
107621.8,84.6572,-924.489,0,0
108923.425,83.999,-910.189,0,0
110225.05,85.1249,-896.15,0,0
111526.675,85.8749,-883.383,0,0
112828.3,86.3396,-871.065,0,0
114129.925,86.1489,-859.22,0,0
115431.55,85.6947,-847.179,0,0
116733.175,83.7614,-834.768,0,0
118034.8,83.3627,-821.459,0,0
119336.425,82.6832,-808.892,0,0
120638.05,81.31,-795.831,0,0
121939.675,80.5657,-782.328,0,0
123241,80.0883,-768.834,0,0
124543,79.6803,-754.81,0,0
125845,79.8957,-740.914,0,0
127146,80.8423,-726.862,0,0
128448,81.8706,-713.519,0,0
129749,82.8474,-700.331,0,0
131051,84.0443,-686.464,0,0
132353,85.5631,-673.862,0,0
133654,86.28,-660.608,0,0
134956,87.7296,-646.605,0,0
136258,90.7714,-633.385,0,0
137559,91.1874,-621.914,0,0
138860.775,90.6096,-606.636,0,0
140162.4,92.6557,-590.518,0,0
141464.025,95.5747,-574.642,0,0
142765.65,98.7344,-557.905,0,0
144067.275,103.57,-540.331,0,0
145368.9,110.378,-521.705,0,0
146670.525,119.899,-504.365,0,0
147972.15,130.168,-488.726,0,0
149273.775,142.445,-470.228,0,0
150575.4,161.325,-453.871,0,0
151877.025,186.104,-447.091,0,0
153178.65,201.566,-450.51,0,0
154480,209.055,-452.332,0,0
155782,219.895,-446.192,0,0
157084,224.41,-454.855,0,0
158385,220.822,-444.718,0,0
159687,232.571,-437.597,0,0
160988,231.435,-435.634,0,0
162290,238.061,-421.152,0,0
163592,251.236,-416.515,0,0
164893,259.612,-415.988,0,0
166195,261.081,-421.404,0,0
167497,250.196,-415.025,0,0
168798,246.684,-400.455,0,0
170100,247.74,-381.891,0,0
171401.375,250.098,-363.346,0,0
172703.0,261.044,-339.061,0,0
174004.625,277.554,-323.016,0,0
175306.25,284.365,-310.307,0,0
176607.875,295.159,-282.318,0,0
177909.5,316.721,-256.512,0,0
179211.125,346.799,-230.376,0,0
180512.75,388.985,-209.986,0,0
181814.375,435.975,-204.787,0,0
183116.0,478.318,-213.249,0,0
184417.625,506.539,-223.973,0,0
185719.25,534.986,-227.075,0,0
187021,568.547,-231.306,0,0
188322,605.217,-236.616,0,0
189624,640.027,-252.445,0,0
190926,675.143,-258.805,0,0
192227,723.142,-277.435,0,0
193529,771.081,-292.669,0,0
194831,844.17,-332.7,0,0
196132,904.514,-407.134,0,0
197434,935.267,-509.17,0,0
198735,928.413,-612.643,0,0
200037,895.691,-705.897,0,0
201339,838.251,-776.536,0,0
202640.35,763.328,-832.769,0,0
203941.975,690.679,-841.617,0,0
205243.6,636.19,-843.437,0,0
206545.225,582.709,-828.304,0,0
207846.85,563.818,-800.582,0,0
209148.475,555.331,-794.258,0,0
210450.1,547.207,-788.661,0,0
211751.725,543.387,-789.534,0,0
213053.35,540.895,-798.441,0,0
214354.975,533.293,-812.852,0,0
215656.6,519.294,-830.851,0,0
216958.225,496.505,-844.652,0,0
218259.85,472.552,-852.781,0,0
219561,448.316,-856.442,0,0
220863,423.495,-856.434,0,0
222165,402.78,-848.409,0,0
223466,389.914,-841.442,0,0
224768,381.793,-838.417,0,0
226070,373.669,-843.775,0,0
227371,357.085,-851.478,0,0
228673,335.797,-854.103,0,0
229974,315.486,-854.171,0,0
231276,291.731,-852.423,0,0
232578,268.46,-845.364,0,0
233879,245.888,-835.048,0,0
235180.95,225.101,-819.33,0,0
236482.575,210.352,-800.594,0,0
237784.2,200.572,-781.849,0,0
239085.825,195.963,-764.212,0,0
240387.45,194.601,-752.587,0,0
241689.075,190.425,-744.643,0,0
242990.7,183.101,-735.186,0,0
244292.325,177.292,-723.177,0,0
245593.95,174.069,-711.929,0,0
246895.575,171.698,-701.341,0,0
248197.2,168.682,-692.298,0,0
249498.825,165.34,-681.386,0,0
250800,164.197,-668.972,0,0
252102,167.64,-657.501,0,0
253404,172.226,-651.811,0,0
254705,172.362,-647.677,0,0
256007,171.03,-641.588,0,0
257309,170.397,-633.309,0,0
258610,172.621,-624.074,0,0
259912,177.723,-616.193,0,0
261213,183.533,-611.107,0,0
262515,189.206,-608.315,0,0
263817,192.543,-605.673,0,0
265118,196.282,-600.146,0,0
266420,205.759,-593.176,0,0
267721.55,223.258,-591.292,0,0
269023.175,242.923,-602.933,0,0
270324.8,253.898,-625.139,0,0
271626.425,253.111,-652.565,0,0
272928.05,238.507,-677.922,0,0
274229.675,212.519,-693.636,0,0
275531.3,184.893,-694.641,0,0
276832.925,164.272,-686.975,0,0
278134.55,149.482,-677.086,0,0
279436.175,137.985,-665.84,0,0
280737.8,131.82,-653.609,0,0
282039.425,129.785,-644.259,0,0
283341,128.283,-638.721,0,0
284643,124.834,-633.453,0,0
285944,123.666,-626.497,0,0
287246,126.442,-623.336,0,0
288548,126.208,-627.433,0,0
289849,118.302,-630.66,0,0
291151,108.272,-628.656,0,0
292452,99.4357,-624.167,0,0
293754,91.6442,-617.837,0,0
295056,84.9458,-610.337,0,0
296357,80.2794,-602.164,0,0
297659,76.5834,-594.497,0,0
298960.525,73.582,-586.568,0,0
300262.15,71.6889,-578.452,0,0
301563.775,71.4529,-570.565,0,0
302865.4,72.3549,-564.044,0,0
304167.025,73.6297,-558.833,0,0
305468.65,74.8125,-554.756,0,0
306770.275,75.74,-551.663,0,0
308071.9,76.2513,-549.251,0,0
309373.525,75.7139,-548.066,0,0
310675.15,73.7674,-546.065,0,0
311976.775,71.8488,-543.556,0,0
313278.4,69.6569,-541.011,0,0
314580,67.0683,-537.897,0,0
315882,64.5333,-534.174,0,0
317183,62.8071,-529.902,0,0
318485,61.6022,-525.837,0,0
319787,61.0235,-522.264,0,0
321088,60.1963,-519.577,0,0
322390,58.7261,-517.08,0,0
323691,56.7619,-514.5,0,0
324993,54.2897,-511.637,0,0
326295,51.7438,-507.79,0,0
327596,49.7009,-503.674,0,0
328898,47.9781,-499.45,0,0
330200,46.5241,-495.182,0,0
331501.125,45.3099,-490.82,0,0
332802.75,44.3554,-486.434,0,0
334104.375,43.8379,-482.029,0,0
335406.0,43.6622,-478.009,0,0
336707.625,43.5697,-474.38,0,0
338009.25,43.3832,-471.066,0,0
339310.875,42.9899,-467.89,0,0
340612.5,42.2844,-464.824,0,0
341914.125,41.3789,-461.387,0,0
343215.75,40.646,-457.662,0,0
344517.375,40.076,-453.89,0,0
345819.0,39.7733,-449.898,0,0
347121,39.7777,-445.883,0,0
348422,40.1467,-442.088,0,0
349724,40.6652,-438.535,0,0
351025,41.3597,-435.136,0,0
352327,42.1876,-432.191,0,0
353629,42.8765,-429.451,0,0
354930,43.4289,-426.884,0,0
356232,43.8703,-424.392,0,0
357534,44.2009,-422.04,0,0
358835,44.448,-419.598,0,0
360137,44.7187,-417.069,0,0
361438,45.0188,-414.708,0,0
362740.1,45.2559,-412.279,0,0
364041.725,45.4832,-409.85,0,0
365343.35,45.8605,-407.412,0,0
366644.975,46.2683,-405.131,0,0
367946.6,46.5776,-402.859,0,0
369248.225,47.0713,-400.474,0,0
370549.85,48.0589,-398.306,0,0
371851.475,48.9141,-396.908,0,0
373153.1,49.1991,-395.85,0,0
374454.725,48.8696,-394.611,0,0
375756.35,48.3471,-392.799,0,0
377057.975,48.3742,-390.719,0,0
378359.6,48.4602,-389.328,0,0
379661,47.6305,-387.707,0,0
380963,47.5001,-385.257,0,0
382264,47.9444,-383.934,0,0
383566,47.1406,-383.054,0,0
384868,45.7277,-381.339,0,0
386169,44.3595,-378.981,0,0
387471,43.3257,-376.119,0,0
388773,42.791,-372.959,0,0
390074,42.7619,-369.958,0,0
391376,42.8427,-367.39,0,0
392677,42.7107,-364.839,0,0
393979,42.5848,-362.202,0,0
395280.7,42.616,-359.372,0,0
396582.325,42.8833,-356.582,0,0
397883.95,43.2578,-353.965,0,0
399185.575,43.6463,-351.489,0,0
400006.6,43.7923,-349.92,0,0