Folder: ML_Dmg_Mehdi_Dataset/Accelerated corrosion test data/2025-10-15_11-00-19 (part 3)

File: sample_6.csv
Frequency (Hz),Impedance (ohms),Phase (Radians),Temperature (C),Humidity (%)
10000.0,4118.31,-6735.44,0,0
11301.625,3490.88,-6315.93,0,0
12603.25,2995.22,-5922.16,0,0
13904.875,2596.67,-5565.47,0,0
15206.5,2272.4,-5236.41,0,0
16508.125,2005.65,-4938.1,0,0
17809.75,1784.81,-4666.7,0,0
19111.375,1598.88,-4420.02,0,0
20413.0,1441.2,-4196.26,0,0
21714.625,1306.07,-3990.6,0,0
23016.25,1192.06,-3801.46,0,0
24317.875,1092.98,-3630.91,0,0
25619.5,1004.3,-3474.41,0,0
26921.1,927.999,-3327.47,0,0
28222.7,860.155,-3194.65,0,0
29524.4,798.667,-3067.18,0,0
30826,749.496,-2950.72,0,0
32127.6,701.638,-2841.93,0,0
33429.2,662.668,-2744.18,0,0
34730.9,619.254,-2651.15,0,0
36032.5,582.096,-2563.48,0,0
37334.1,549.811,-2477.06,0,0
38635.7,521.705,-2396.01,0,0
39937.4,500.369,-2319.94,0,0
41239,479.953,-2254.47,0,0
42540.6,454.677,-2192.03,0,0
43842.225,435.594,-2125.73,0,0
45143.85,421.487,-2065.9,0,0
46445.475,408.462,-2012.53,0,0
47747.1,397.087,-1963.35,0,0
49048.725,383.173,-1923.05,0,0
50350.35,360.409,-1882.07,0,0
51651.975,340.613,-1834.07,0,0
52953.6,326.221,-1787.45,0,0
54255.225,313.031,-1743.64,0,0
55556.85,302.065,-1703.05,0,0
56858.475,291.221,-1661.53,0,0
58160.1,284.108,-1625.8,0,0
59461.7,273.779,-1592.66,0,0
60763.3,262.66,-1558.34,0,0
62065,250.701,-1523.33,0,0
63366.6,247.329,-1486.65,0,0
64668.2,241.433,-1460.31,0,0
65969.8,233.722,-1430.2,0,0
67271.5,226.597,-1403.24,0,0
68573.1,218.481,-1375.69,0,0
69874.7,210.656,-1348.47,0,0
71176.3,203.655,-1321.35,0,0
72478,197.565,-1294.59,0,0
73779.6,192.141,-1268.92,0,0
75081.2,187.13,-1244.42,0,0
76382.825,181.842,-1220.49,0,0
77684.45,176.834,-1196.71,0,0
78986.075,172.225,-1173.18,0,0
80287.7,167.963,-1149.98,0,0
81589.325,164.512,-1126.92,0,0
82890.95,161.836,-1104.27,0,0
84192.575,159.78,-1082.06,0,0
85494.2,159.274,-1060.55,0,0
86795.825,159.351,-1040.81,0,0
88097.45,159.502,-1021.94,0,0
89399.075,160.558,-1004,0,0
90700.7,161.679,-989.66,0,0
92002.3,158.187,-975.803,0,0
93303.9,155.634,-958.982,0,0
94605.6,154.858,-941.132,0,0
95907.2,155.809,-925.7,0,0
97208.8,155.894,-913.031,0,0
98510.4,153.571,-898.823,0,0
99812.1,154.152,-884.628,0,0
101114,154.171,-873.639,0,0
102415,151.93,-862.506,0,0
103717,148.78,-852.307,0,0
105019,142.537,-842.059,0,0
106320.175,132.616,-826.498,0,0
107621.8,129.145,-805.079,0,0
108923.425,130.11,-786.27,0,0
110225.05,133.27,-769.077,0,0
111526.675,138.433,-755.082,0,0
112828.3,142.607,-745.667,0,0
114129.925,142.336,-737.428,0,0
115431.55,143.014,-726.222,0,0
116733.175,142.22,-719.848,0,0
118034.8,135.57,-709.502,0,0
119336.425,132.097,-693.848,0,0
120638.05,133.457,-678.217,0,0
121939.675,136.147,-668.605,0,0
123241,134.247,-657.469,0,0
124543,134.074,-645.589,0,0
125845,133.014,-634.003,0,0
127146,131.929,-621.172,0,0
128448,132.091,-607.166,0,0
129749,134.288,-593.721,0,0
131051,136.525,-581.253,0,0
132353,139.438,-569.017,0,0
133654,143.065,-557.62,0,0
134956,146.429,-547.282,0,0
136258,149.636,-537.19,0,0
137559,153.421,-528.156,0,0
138860.775,155.516,-520.703,0,0
140162.4,156.004,-511.798,0,0
141464.025,157.374,-502.084,0,0
142765.65,157.557,-493.193,0,0
144067.275,157.358,-481.884,0,0
145368.9,159.153,-470.017,0,0
146670.525,161.585,-459.778,0,0
147972.15,161.675,-449.851,0,0
149273.775,161.386,-436.818,0,0
150575.4,163.386,-422.043,0,0
151877.025,167.182,-406.776,0,0
153178.65,174.288,-393.142,0,0
154480,179.978,-381.805,0,0
155782,185.949,-368.831,0,0
157084,194.028,-357.962,0,0
158385,199.317,-348.989,0,0
159687,203.816,-338.11,0,0
160988,208.262,-326.526,0,0
162290,212.708,-313.917,0,0
163592,217.953,-300.256,0,0
164893,223.096,-286.192,0,0
166195,228.816,-269.968,0,0
167497,236.034,-252.518,0,0
168798,245.059,-233.727,0,0
170100,255.973,-214.557,0,0
171401.375,268.29,-194.391,0,0
172703.0,282.447,-172.729,0,0
174004.625,299.469,-149.361,0,0
175306.25,320.635,-124.333,0,0
176607.875,347.146,-99.099,0,0
177909.5,379.233,-75.077,0,0
179211.125,416.689,-53.4182,0,0
180512.75,458.467,-36.3339,0,0
181814.375,502.154,-21.4923,0,0
183116.0,550.647,-8.43821,0,0
184417.625,603.249,2.28081,0,0
185719.25,663.514,12.7582,0,0
187021,737.687,18.1203,0,0
188322,824.965,9.63981,0,0
189624,922.516,-18.8992,0,0
190926,1024.43,-75.3579,0,0
192227,1117.29,-163.683,0,0
193529,1189.16,-278.11,0,0
194831,1233.82,-412.406,0,0
196132,1242.17,-558.256,0,0
197434,1211.52,-700.204,0,0
198735,1147.49,-823.579,0,0
200037,1062.93,-921.4,0,0
201339,966.416,-991.845,0,0
202640.35,866.854,-1034.88,0,0
203941.975,773.996,-1055.38,0,0
205243.6,691.282,-1060.94,0,0
206545.225,617.159,-1055.67,0,0
207846.85,552.58,-1043.05,0,0
209148.475,496.682,-1025.17,0,0
210450.1,448.509,-1004.71,0,0
211751.725,405.763,-982.578,0,0
213053.35,369.204,-958.194,0,0
214354.975,338.025,-933.633,0,0
215656.6,311.332,-908.594,0,0
216958.225,288.967,-884.285,0,0
218259.85,269.738,-860.784,0,0
219561,253.213,-837.755,0,0
220863,239.069,-815.267,0,0
222165,227.371,-793.018,0,0
223466,217.939,-771.069,0,0
224768,211.046,-749.722,0,0
226070,207.033,-729.379,0,0
227371,204.677,-711.062,0,0
228673,202.942,-693.995,0,0
229974,202.374,-677.214,0,0
231276,203.364,-660.88,0,0
232578,206.218,-645.27,0,0
233879,211.116,-630.694,0,0
235180.95,217.986,-617.688,0,0
236482.575,226.727,-606.683,0,0
237784.2,236.931,-598.347,0,0
239085.825,248.101,-592.888,0,0
240387.45,259.61,-590.624,0,0
241689.075,270.505,-591.696,0,0
242990.7,280.107,-595.48,0,0
244292.325,288.763,-602.053,0,0
245593.95,294.233,-612.474,0,0
246895.575,294.506,-623.095,0,0
248197.2,292.193,-632.142,0,0
249498.825,288.542,-639.149,0,0
250800,286.482,-645.971,0,0
252102,282.933,-655.335,0,0
253404,276.42,-665.638,0,0
254705,265.841,-675.403,0,0
256007,252.082,-682.151,0,0
257309,237.345,-685.096,0,0
258610,223.133,-685.236,0,0
259912,209.803,-683.303,0,0
261213,197.321,-679.988,0,0
262515,186.006,-675.319,0,0
263817,175.834,-669.861,0,0
265118,166.77,-663.964,0,0
266420,158.669,-657.913,0,0
267721.55,151.21,-651.84,0,0
269023.175,144.319,-645.684,0,0
270324.8,137.946,-639.435,0,0
271626.425,132.133,-633.289,0,0
272928.05,126.66,-626.874,0,0
274229.675,121.658,-620.609,0,0
275531.3,116.98,-614.308,0,0
276832.925,112.643,-607.975,0,0
278134.55,108.592,-601.561,0,0
279436.175,105.048,-594.869,0,0
280737.8,102.524,-588.266,0,0
282039.425,100.6,-582.68,0,0
283341,98.2929,-577.553,0,0
284643,96.0618,-572.183,0,0
285944,94.3099,-567.107,0,0
287246,92.6487,-562.841,0,0
288548,90.4688,-558.672,0,0
289849,87.9958,-554.253,0,0
291151,85.9417,-549.749,0,0
292452,83.8007,-545.565,0,0
293754,81.6091,-541.461,0,0
295056,79.1673,-536.984,0,0
296357,76.9355,-532.108,0,0
297659,75.1867,-527.034,0,0
298960.525,74.2276,-522.28,0,0
300262.15,73.0863,-518.274,0,0
301563.775,71.5853,-514.279,0,0
302865.4,70.2318,-510.07,0,0
304167.025,69.0602,-505.872,0,0
305468.65,67.9734,-501.904,0,0
306770.275,67.014,-498.123,0,0
308071.9,65.8835,-494.378,0,0
309373.525,64.8378,-490.633,0,0
310675.15,63.787,-486.904,0,0
311976.775,62.8524,-483.308,0,0
313278.4,61.8488,-479.658,0,0
314580,60.8454,-476.092,0,0
315882,59.9451,-472.51,0,0
317183,59.0899,-469.002,0,0
318485,58.1945,-465.492,0,0
319787,57.4043,-462.006,0,0
321088,56.6671,-458.53,0,0
322390,56.0143,-455.152,0,0
323691,55.3264,-451.87,0,0
324993,54.6988,-448.565,0,0
326295,53.9975,-445.348,0,0
327596,53.2727,-441.996,0,0
328898,52.6346,-438.62,0,0
330200,52.1425,-435.307,0,0
331501.125,51.7176,-432.041,0,0
332802.75,51.3741,-428.819,0,0
334104.375,50.9624,-425.726,0,0
335406.0,50.64,-422.608,0,0
336707.625,50.3464,-419.503,0,0
338009.25,50.0082,-416.508,0,0
339310.875,49.7454,-413.48,0,0
340612.5,49.5369,-410.452,0,0
341914.125,49.3991,-407.361,0,0
343215.75,49.3904,-404.431,0,0
344517.375,49.3663,-401.699,0,0
345819.0,49.2481,-398.902,0,0
347121,49.184,-396.051,0,0
348422,49.3092,-393.31,0,0
349724,49.4777,-390.709,0,0
351025,49.6374,-388.182,0,0
352327,49.7222,-385.776,0,0
353629,49.782,-383.455,0,0
354930,49.8234,-381.246,0,0
356232,49.6937,-379.041,0,0
357534,49.4028,-376.77,0,0
358835,49.2041,-374.464,0,0
360137,48.9787,-372.176,0,0
361438,48.7408,-369.769,0,0
362740.1,48.5298,-367.321,0,0
364041.725,48.3684,-364.86,0,0
365343.35,48.2625,-362.429,0,0
366644.975,48.232,-360.02,0,0
367946.6,48.1996,-357.631,0,0
369248.225,48.1286,-355.324,0,0
370549.85,48.1005,-352.943,0,0
371851.475,48.1997,-350.614,0,0
373153.1,48.299,-348.421,0,0
374454.725,48.3268,-346.45,0,0
375756.35,48.0238,-344.386,0,0
377057.975,47.6794,-342.151,0,0
378359.6,47.3896,-339.783,0,0
379661,47.1374,-337.317,0,0
380963,47.0017,-334.753,0,0
382264,46.9775,-332.11,0,0
383566,47.2711,-329.724,0,0
384868,47.241,-327.571,0,0
386169,47.1145,-325.181,0,0
387471,47.0444,-322.751,0,0
388773,47.0105,-320.232,0,0
390074,47.0209,-317.733,0,0
391376,47.0529,-315.192,0,0
392677,47.1601,-312.619,0,0
393979,47.2424,-310.014,0,0
395280.7,47.376,-307.41,0,0
396582.325,47.5695,-304.733,0,0
397883.95,47.7719,-302.08,0,0
399185.575,48.0218,-299.366,0,0
400006.6,48.2083,-297.629,0,0

File: sample_7.csv
Frequency (Hz),Impedance (ohms),Phase (Radians),Temperature (C),Humidity (%)
10000.0,271.952,-12053.7,0,0
11301.625,245.986,-10663.8,0,0
12603.25,256.277,-9615.31,0,0
13904.875,208.378,-8725.07,0,0
15206.5,194.643,-7989.68,0,0
16508.125,170.865,-7350.26,0,0
17809.75,170.2,-6796.99,0,0
19111.375,179.249,-6356.35,0,0
20413.0,168.486,-5964.15,0,0
21714.625,156.516,-5624.15,0,0
23016.25,129.845,-5301.77,0,0
24317.875,122.391,-5009.74,0,0
25619.5,118.147,-4746.59,0,0
26921.1,121.847,-4502.51,0,0
28222.7,177.131,-4290.38,0,0
29524.4,139.213,-4161.18,0,0
30826,131.284,-3977.21,0,0
32127.6,117.276,-3829.8,0,0
33429.2,101.474,-3679.82,0,0
34730.9,92.1507,-3535.31,0,0
36032.5,88.2596,-3402.07,0,0
37334.1,85.7723,-3278.62,0,0
38635.7,86.2725,-3161.72,0,0
39937.4,98.1992,-3062.37,0,0
41239,86.3827,-2975.58,0,0
42540.6,79.9284,-2879.66,0,0
43842.225,78.7757,-2791.39,0,0
45143.85,80.2018,-2714,0,0
46445.475,76.963,-2641.48,0,0
47747.1,70.4853,-2565.53,0,0
49048.725,67.7151,-2495.34,0,0
50350.35,65.7337,-2428.52,0,0
51651.975,64.3137,-2365.11,0,0
52953.6,63.4336,-2304.89,0,0
54255.225,62.048,-2248.29,0,0
55556.85,60.7288,-2193.67,0,0
56858.475,59.9384,-2141.57,0,0
58160.1,59.0907,-2091.35,0,0
59461.7,59.226,-2043.93,0,0
60763.3,58.8234,-2000.14,0,0
62065,56.7175,-1957,0,0
63366.6,55.4637,-1914.26,0,0
64668.2,54.8498,-1873.95,0,0
65969.8,54.7483,-1835.53,0,0
67271.5,53.0325,-1798.84,0,0
68573.1,51.7773,-1762.25,0,0
69874.7,51.1895,-1726.97,0,0
71176.3,51.0328,-1693.44,0,0
72478,50.072,-1661.33,0,0
73779.6,49.2083,-1629.6,0,0
75081.2,48.6653,-1598.93,0,0
76382.825,48.1561,-1569.32,0,0
77684.45,47.8831,-1540.52,0,0
78986.075,47.5733,-1512.66,0,0
80287.7,47.4276,-1485.69,0,0
81589.325,47.0344,-1459.55,0,0
82890.95,46.7708,-1433.97,0,0
84192.575,46.7204,-1408.85,0,0
85494.2,46.9434,-1384.92,0,0
86795.825,47.0623,-1361.59,0,0
88097.45,47.1847,-1339.07,0,0
89399.075,46.686,-1316.81,0,0
90700.7,46.8653,-1294.72,0,0
92002.3,47.2567,-1273.06,0,0
93303.9,47.8924,-1251.98,0,0
94605.6,49.7582,-1232.14,0,0
95907.2,49.7519,-1214.34,0,0
97208.8,49.1935,-1194.99,0,0
98510.4,49.9765,-1175.58,0,0
99812.1,49.5472,-1157.03,0,0
101114,51.1416,-1138.01,0,0
102415,52.6865,-1119.97,0,0
103717,55.4533,-1103.4,0,0
105019,56.4299,-1088.3,0,0
106320.175,55.7962,-1072.25,0,0
107621.8,56.9447,-1056.02,0,0
108923.425,57.9247,-1039.74,0,0
110225.05,58.4455,-1023.2,0,0
111526.675,61.7301,-1006.41,0,0
112828.3,66.1218,-990.209,0,0
114129.925,71.4193,-976.337,0,0
115431.55,77.527,-963.931,0,0
116733.175,85.4844,-955.353,0,0
118034.8,89.0564,-950.316,0,0
119336.425,91.6357,-947.965,0,0
120638.05,84.6852,-947.718,0,0
121939.675,74.1681,-937.153,0,0
123241,66.9531,-924.372,0,0
124543,62.4638,-909.558,0,0
125845,58.6113,-895.767,0,0
127146,55.2535,-881.09,0,0
128448,53.5946,-866.258,0,0
129749,52.0787,-851.824,0,0
131051,50.8745,-837.437,0,0
132353,50.1055,-822.181,0,0
133654,50.5533,-806.658,0,0
134956,53.2558,-791.928,0,0
136258,57.7704,-778.93,0,0
137559,58.3968,-771.372,0,0
138860.775,56.0508,-759.172,0,0
140162.4,56.1078,-745.205,0,0
141464.025,56.1308,-731.899,0,0
142765.65,57.196,-717.421,0,0
144067.275,59.9325,-704.059,0,0
145368.9,61.5302,-691.822,0,0
146670.525,62.668,-678.701,0,0
147972.15,64.2646,-665.38,0,0
149273.775,65.0256,-652.459,0,0
150575.4,65.4063,-636.892,0,0
151877.025,67.541,-619.574,0,0
153178.65,71.9361,-601.652,0,0
154480,77.9841,-583.553,0,0
155782,86.5365,-565.469,0,0
157084,97.5536,-548.365,0,0
158385,110.958,-534.388,0,0
159687,121.197,-525.139,0,0
160988,125.405,-511.36,0,0
162290,133.78,-487.539,0,0
163592,151.982,-462.302,0,0
164893,178.736,-441.763,0,0
166195,208.581,-420.262,0,0
167497,256.357,-403.23,0,0
168798,316.897,-406.532,0,0
170100,373.572,-439.108,0,0
171401.375,411.789,-494.401,0,0
172703.0,424.77,-561.456,0,0
174004.625,393.282,-625.078,0,0
175306.25,343.618,-640.658,0,0
176607.875,320.43,-629.036,0,0
177909.5,327.72,-626.941,0,0
179211.125,330.073,-663.327,0,0
180512.75,297.195,-685.104,0,0
181814.375,259.439,-698.647,0,0
183116.0,215.918,-690.132,0,0
184417.625,186.205,-668.401,0,0
185719.25,166.904,-645.734,0,0
187021,152.071,-618.581,0,0
188322,148.026,-593.475,0,0
189624,142.673,-575.617,0,0
190926,136.77,-553.394,0,0
192227,135.702,-529.572,0,0
193529,137.677,-504.948,0,0
194831,143.414,-480.645,0,0
196132,154.338,-459.273,0,0
197434,166.295,-441.357,0,0
198735,175.123,-424.979,0,0
200037,184.563,-404.729,0,0
201339,198.869,-382.024,0,0
202640.35,219.38,-357.088,0,0
203941.975,247.622,-335.756,0,0
205243.6,282.647,-317.131,0,0
206545.225,327.997,-311.648,0,0
207846.85,363.515,-318.281,0,0
209148.475,400.195,-314.89,0,0
210450.1,458.702,-326.857,0,0
211751.725,504.282,-373.949,0,0
213053.35,525.944,-425.44,0,0
214354.975,530.737,-471.486,0,0
215656.6,525.374,-512.871,0,0
216958.225,521.362,-551.407,0,0
218259.85,497.771,-589.607,0,0
219561,462.972,-615.185,0,0
220863,428.265,-616.169,0,0
222165,408.865,-605.665,0,0
223466,403.469,-597.599,0,0
224768,400.118,-594.778,0,0
226070,403.189,-587.379,0,0
227371,414.382,-591.267,0,0
228673,426.783,-603.838,0,0
229974,431.568,-625.839,0,0
231276,429.037,-655.163,0,0
232578,416.57,-683.429,0,0
233879,388.765,-713.142,0,0
235180.95,344.971,-724.527,0,0
236482.575,310.474,-713.062,0,0
237784.2,286.881,-703.675,0,0
239085.825,262.879,-685.732,0,0
240387.45,258.59,-665.145,0,0
241689.075,252.184,-660.253,0,0
242990.7,237.669,-649.689,0,0
244292.325,229.684,-630.667,0,0
245593.95,233.288,-616.503,0,0
246895.575,233.054,-609.022,0,0
248197.2,231.37,-598.978,0,0
249498.825,232.608,-587.53,0,0
250800,238.099,-576.164,0,0
252102,248.113,-567.969,0,0
253404,262.637,-567.133,0,0
254705,272.112,-576.64,0,0
256007,271.916,-587.866,0,0
257309,265.433,-594.524,0,0
258610,258.587,-594.946,0,0
259912,254.128,-595.178,0,0
261213,247.896,-591.715,0,0
262515,246.936,-584.26,0,0
263817,253.952,-581.584,0,0
265118,257.848,-587.65,0,0
266420,255.572,-591.88,0,0
267721.55,254.501,-595.897,0,0
269023.175,250.098,-598.869,0,0
270324.8,249.128,-597.502,0,0
271626.425,256.05,-600.282,0,0
272928.05,263.914,-620.39,0,0
274229.675,248.628,-648.45,0,0
275531.3,215.924,-664.233,0,0
276832.925,179.304,-658.238,0,0
278134.55,153.138,-637.613,0,0
279436.175,141.306,-614.184,0,0
280737.8,137.59,-593.921,0,0
282039.425,137.291,-580.655,0,0
283341,134.019,-567.366,0,0
284643,134.983,-551.273,0,0
285944,140.773,-538.818,0,0
287246,147.091,-531.263,0,0
288548,149.743,-525.362,0,0
289849,152.516,-516.965,0,0
291151,158.063,-507.877,0,0
292452,165.297,-501.463,0,0
293754,173.33,-496.077,0,0
295056,181.914,-491.634,0,0
296357,192.447,-488.393,0,0
297659,205.169,-487.651,0,0
298960.525,218.319,-491.198,0,0
300262.15,231.914,-497.756,0,0
301563.775,246.38,-509.677,0,0
302865.4,258.404,-532.933,0,0
304167.025,253.673,-562.022,0,0
305468.65,238.281,-582.691,0,0
306770.275,218.297,-595.893,0,0
308071.9,197.547,-601.194,0,0
309373.525,177.898,-600.16,0,0
310675.15,162.729,-594.251,0,0
311976.775,151.539,-588.009,0,0
313278.4,141.61,-581.96,0,0
314580,132.516,-574.381,0,0
315882,126.633,-565.415,0,0
317183,123.449,-558.081,0,0
318485,120.751,-552.307,0,0
319787,118.519,-547.035,0,0
321088,116.463,-543.015,0,0
322390,114.061,-539.345,0,0
323691,111.566,-536.07,0,0
324993,108.73,-532.342,0,0
326295,106.847,-528.726,0,0
327596,104.783,-526.397,0,0
328898,101.672,-524.173,0,0
330200,98.281,-521.491,0,0
331501.125,94.8019,-518.909,0,0
332802.75,90.4414,-516.287,0,0
334104.375,85.4256,-512.654,0,0
335406.0,80.6542,-507.887,0,0
336707.625,76.2424,-502.373,0,0
338009.25,72.5867,-496.003,0,0
339310.875,69.7023,-489.506,0,0
340612.5,67.4989,-482.821,0,0
341914.125,66.0578,-475.762,0,0
343215.75,65.68,-468.913,0,0
344517.375,66.3453,-462.726,0,0
345819.0,67.3638,-457.698,0,0
347121,67.8526,-453.705,0,0
348422,67.3269,-449.745,0,0
349724,66.47,-444.875,0,0
351025,65.8733,-439.296,0,0
352327,66.5303,-433.049,0,0
353629,68.6256,-427.546,0,0
354930,71.1851,-423.313,0,0
356232,73.5965,-420.561,0,0
357534,74.1538,-418.643,0,0
358835,73.3286,-415.425,0,0
360137,73.0329,-410.505,0,0
361438,74.162,-405.047,0,0
362740.1,76.477,-400.168,0,0
364041.725,79.2436,-395.932,0,0
365343.35,82.6838,-392.226,0,0
366644.975,86.2615,-390.158,0,0
367946.6,89.0099,-388.534,0,0
369248.225,91.5698,-387.411,0,0
370549.85,93.3557,-387.37,0,0
371851.475,92.7948,-386.951,0,0
373153.1,92.0114,-384.204,0,0
374454.725,92.6804,-380.67,0,0
375756.35,94.1277,-377.609,0,0
377057.975,95.3283,-375.188,0,0
378359.6,96.3353,-371.849,0,0
379661,98.4028,-368.333,0,0
380963,100.894,-365.5,0,0
382264,103.348,-362.803,0,0
383566,106.185,-360.17,0,0
384868,109.384,-358,0,0
386169,112.15,-356.324,0,0
387471,115.006,-354.339,0,0
388773,117.934,-351.797,0,0
390074,122.628,-349.328,0,0
391376,127.633,-348.67,0,0
392677,131.975,-348.536,0,0
393979,136.034,-348.395,0,0
395280.7,140.626,-347.57,0,0
396582.325,147.178,-347.134,0,0
397883.95,155.632,-349.067,0,0
399185.575,164.345,-355.075,0,0
400006.6,168.699,-361.33,0,0