Folder: ML_Dmg_Mehdi_Dataset/Accelerated corrosion test data/2025-10-19_06-00-03 (part 2)

File: sample_3.csv
Frequency (Hz),Impedance (ohms),Phase (Radians),Temperature (C),Humidity (%)
10000.0,255.91,-11953,0,0
11301.625,228.18,-10587.4,0,0
12603.25,206.918,-9501.79,0,0
13904.875,188.955,-8617.5,0,0
15206.5,177.534,-7875.57,0,0
16508.125,164.616,-7273.66,0,0
17809.75,159.878,-6738.82,0,0
19111.375,149.729,-6281.37,0,0
20413.0,164.515,-5875.65,0,0
21714.625,143.58,-5549.32,0,0
23016.25,130.085,-5239.95,0,0
24317.875,122.468,-4957.07,0,0
25619.5,115.722,-4706.47,0,0
26921.1,111.515,-4472.32,0,0
28222.7,106.336,-4262.32,0,0
29524.4,110.731,-4084.01,0,0
30826,103.617,-3909.53,0,0
32127.6,104.295,-3741.45,0,0
33429.2,101.358,-3618.45,0,0
34730.9,89.4239,-3477.37,0,0
36032.5,84.8772,-3347.73,0,0
37334.1,81.7229,-3228.11,0,0
38635.7,79.2661,-3116.53,0,0
39937.4,77.2626,-3012.62,0,0
41239,75.766,-2914.35,0,0
42540.6,74.3971,-2823.29,0,0
43842.225,73.1741,-2736.56,0,0
45143.85,71.9754,-2655.92,0,0
46445.475,70.8359,-2578.83,0,0
47747.1,71.8049,-2505.56,0,0
49048.725,69.5795,-2439.36,0,0
50350.35,67.5589,-2373.18,0,0
51651.975,67.0717,-2309.9,0,0
52953.6,67.1975,-2249.28,0,0
54255.225,69.7235,-2193.25,0,0
55556.85,67.7096,-2144.77,0,0
56858.475,62.4883,-2091.65,0,0
58160.1,61.8319,-2039.04,0,0
59461.7,62.2753,-1989.12,0,0
60763.3,63.4772,-1941.92,0,0
62065,65.3334,-1896.4,0,0
63366.6,68.8902,-1852.2,0,0
64668.2,77.2451,-1809.71,0,0
65969.8,93.1942,-1781.67,0,0
67271.5,75.8891,-1757.71,0,0
68573.1,76.0328,-1718.87,0,0
69874.7,77.5165,-1689.01,0,0
71176.3,72.9833,-1658.39,0,0
72478,71.6955,-1625.32,0,0
73779.6,70.6925,-1597.29,0,0
75081.2,66.9891,-1569.59,0,0
76382.825,63.0105,-1540.63,0,0
77684.45,59.9862,-1511.57,0,0
78986.075,57.312,-1482.8,0,0
80287.7,55.4677,-1454.3,0,0
81589.325,54.208,-1426.66,0,0
82890.95,53.5374,-1399.85,0,0
84192.575,53.1285,-1373.77,0,0
85494.2,52.8401,-1348.49,0,0
86795.825,52.8999,-1323.79,0,0
88097.45,53.2749,-1299.63,0,0
89399.075,54.532,-1275.51,0,0
90700.7,56.274,-1253.41,0,0
92002.3,58.3705,-1232.24,0,0
93303.9,61.0856,-1212.7,0,0
94605.6,62.5118,-1197.8,0,0
95907.2,57.3939,-1179.43,0,0
97208.8,55.9658,-1157.97,0,0
98510.4,55.8847,-1137.82,0,0
99812.1,55.7192,-1118.42,0,0
101114,55.4294,-1098.64,0,0
102415,56.8277,-1078.05,0,0
103717,60.4102,-1060.07,0,0
105019,64.1722,-1045.34,0,0
106320.175,64.1071,-1031.47,0,0
107621.8,62.4097,-1016.14,0,0
108923.425,60.2153,-999.27,0,0
110225.05,59.7511,-980.846,0,0
111526.675,61.7002,-962.552,0,0
112828.3,63.9515,-946.444,0,0
114129.925,64.9837,-930.785,0,0
115431.55,66.3672,-913.755,0,0
116733.175,69.3717,-896.606,0,0
118034.8,75.105,-879.509,0,0
119336.425,82.043,-866.15,0,0
120638.05,89.3261,-860.047,0,0
121939.675,85.6398,-851.911,0,0
123241,86.093,-837.569,0,0
124543,88.1075,-825.116,0,0
125845,90.4072,-814.236,0,0
127146,90.9107,-804.236,0,0
128448,90.203,-794.188,0,0
129749,89.4497,-782.038,0,0
131051,90.4429,-770.282,0,0
132353,89.0483,-759.431,0,0
133654,87.9924,-747.535,0,0
134956,86.667,-734.74,0,0
136258,85.3301,-721.631,0,0
137559,84.7226,-706.594,0,0
138860.775,86.3005,-693.2,0,0
140162.4,85.7784,-680.051,0,0
141464.025,84.9284,-666.685,0,0
142765.65,83.4128,-650.857,0,0
144067.275,83.3476,-633.641,0,0
145368.9,84.7184,-615.589,0,0
146670.525,86.9446,-596.776,0,0
147972.15,90.8176,-577.331,0,0
149273.775,96.6094,-556.986,0,0
150575.4,105.948,-536.748,0,0
151877.025,117.5,-518.673,0,0
153178.65,129.684,-504.086,0,0
154480,140.716,-490.218,0,0
155782,149.914,-475.519,0,0
157084,161.312,-458.217,0,0
158385,177.853,-447.617,0,0
159687,182.529,-433.914,0,0
160988,194.434,-409.183,0,0
162290,216.042,-381.826,0,0
163592,247.817,-357.509,0,0
164893,293.394,-341.689,0,0
166195,344.638,-348.441,0,0
167497,387.91,-372.08,0,0
168798,412.179,-404.382,0,0
170100,420.13,-441.575,0,0
171401.375,415.623,-456.729,0,0
172703.0,418.097,-468.468,0,0
174004.625,426.242,-481.035,0,0
175306.25,433.014,-497.728,0,0
176607.875,435.513,-528.126,0,0
177909.5,407.733,-556.436,0,0
179211.125,374.198,-548.386,0,0
180512.75,368.015,-529.785,0,0
181814.375,374.946,-526.409,0,0
183116.0,371.485,-533.557,0,0
184417.625,358.398,-536.729,0,0
185719.25,341.243,-529.885,0,0
187021,329.387,-510.73,0,0
188322,327.972,-492.352,0,0
189624,327.924,-472.945,0,0
190926,335.887,-454.655,0,0
192227,344.568,-439.209,0,0
193529,355.801,-418.659,0,0
194831,377.639,-403.405,0,0
196132,403.736,-392.897,0,0
197434,428.352,-398.276,0,0
198735,443.723,-406.104,0,0
200037,451.35,-407.209,0,0
201339,460.085,-397.551,0,0
202640.35,482.849,-386.28,0,0
203941.975,515.251,-387.346,0,0
205243.6,542.439,-402.728,0,0
206545.225,552.564,-413.2,0,0
207846.85,573.217,-411.811,0,0
209148.475,608.626,-417.619,0,0
210450.1,641.516,-437.888,0,0
211751.725,672.791,-467.198,0,0
213053.35,698.181,-502.278,0,0
214354.975,715.311,-548.283,0,0
215656.6,720.734,-592.102,0,0
216958.225,722.197,-638.51,0,0
218259.85,709.359,-684.47,0,0
219561,692.696,-719.64,0,0
220863,678.592,-756.031,0,0
222165,654.967,-799.118,0,0
223466,611.381,-830.987,0,0
224768,568.119,-840.755,0,0
226070,540.909,-842.683,0,0
227371,519.357,-850.289,0,0
228673,491.89,-860.71,0,0
229974,465.112,-865.756,0,0
231276,436.211,-867.896,0,0
232578,410.291,-865.324,0,0
233879,386.987,-862.009,0,0
235180.95,365.828,-857.705,0,0
236482.575,343.42,-854.722,0,0
237784.2,319.875,-848.942,0,0
239085.825,296.335,-837.877,0,0
240387.45,276.609,-824.422,0,0
241689.075,259.052,-808.297,0,0
242990.7,247.252,-789.902,0,0
244292.325,240.725,-776.504,0,0
245593.95,230.622,-763.771,0,0
246895.575,223.595,-748.757,0,0
248197.2,218.427,-734.864,0,0
249498.825,217.657,-720.536,0,0
250800,217.971,-712.942,0,0
252102,213.817,-706.923,0,0
253404,207.29,-698.412,0,0
254705,200.579,-685.502,0,0
256007,198.412,-668.895,0,0
257309,203.068,-653.36,0,0
258610,209.941,-640.82,0,0
259912,222.441,-630.46,0,0
261213,239.466,-627.192,0,0
262515,254.466,-638.362,0,0
263817,256.655,-654.034,0,0
265118,249.714,-667.29,0,0
266420,236.284,-675.987,0,0
267721.55,218.826,-675.185,0,0
269023.175,206.994,-666.975,0,0
270324.8,199.096,-657.492,0,0
271626.425,195.223,-647.908,0,0
272928.05,192.964,-640.296,0,0
274229.675,190.739,-631.305,0,0
275531.3,191.658,-621.5,0,0
276832.925,197.219,-612.828,0,0
278134.55,205.473,-609.445,0,0
279436.175,212.989,-611.764,0,0
280737.8,216.325,-618.041,0,0
282039.425,214.5,-624.513,0,0
283341,209.455,-629.194,0,0
284643,202.463,-631.167,0,0
285944,195.057,-630.031,0,0
287246,189.433,-626.323,0,0
288548,186.407,-622.894,0,0
289849,185.039,-620.099,0,0
291151,182.787,-621.067,0,0
292452,176.85,-620.544,0,0
293754,171.266,-616.615,0,0
295056,168.411,-611.624,0,0
296357,168.026,-608.424,0,0
297659,166.902,-607.626,0,0
298960.525,164.312,-607.333,0,0
300262.15,160.781,-607.051,0,0
301563.775,156.123,-606.354,0,0
302865.4,150.578,-604.508,0,0
304167.025,145.131,-601.367,0,0
305468.65,140.148,-596.995,0,0
306770.275,136.384,-591.922,0,0
308071.9,133.941,-586.758,0,0
309373.525,132.468,-582.437,0,0
310675.15,131.361,-579.24,0,0
311976.775,129.171,-577.175,0,0
313278.4,125.529,-574.564,0,0
314580,121.468,-569.995,0,0
315882,119.341,-564.014,0,0
317183,119.126,-558.882,0,0
318485,119.181,-555.085,0,0
319787,118.903,-551.599,0,0
321088,118.992,-548.248,0,0
322390,120.075,-545.393,0,0
323691,121.846,-544.511,0,0
324993,121.884,-545.856,0,0
326295,119.512,-547.254,0,0
327596,115.657,-547.573,0,0
328898,111.04,-546.689,0,0
330200,106.575,-544.581,0,0
331501.125,102.279,-542.15,0,0
332802.75,97.5337,-539.081,0,0
334104.375,92.893,-535.066,0,0
335406.0,88.6635,-529.997,0,0
336707.625,85.3789,-524.283,0,0
338009.25,82.8172,-518.456,0,0
339310.875,80.7553,-512.39,0,0
340612.5,79.6292,-505.518,0,0
341914.125,80.4517,-498.619,0,0
343215.75,82.9374,-493.456,0,0
344517.375,85.308,-490.473,0,0
345819.0,86.3559,-488.504,0,0
347121,86.3388,-486.64,0,0
348422,85.3476,-484.255,0,0
349724,84.6208,-480.477,0,0
351025,85.6167,-476.443,0,0
352327,87.4543,-474.318,0,0
353629,88.0318,-473.513,0,0
354930,87.2285,-472.527,0,0
356232,85.9459,-470.847,0,0
357534,84.2172,-468.495,0,0
358835,83.0962,-464.982,0,0
360137,83.1367,-461.767,0,0
361438,83.0896,-459.312,0,0
362740.1,82.4484,-456.67,0,0
364041.725,82.6075,-453.255,0,0
365343.35,83.7952,-450.822,0,0
366644.975,84.6783,-449.758,0,0
367946.6,83.8612,-449.341,0,0
369248.225,81.5271,-447.349,0,0
370549.85,80.7267,-443.316,0,0
371851.475,82.0651,-440.472,0,0
373153.1,82.6175,-439.919,0,0
374454.725,80.9449,-438.849,0,0
375756.35,79.0995,-436.158,0,0
377057.975,78.3304,-432.477,0,0
378359.6,78.728,-428.969,0,0
379661,80.0174,-426.239,0,0
380963,81.1336,-425.035,0,0
382264,81.1654,-424.027,0,0
383566,80.786,-423.021,0,0
384868,79.579,-421.94,0,0
386169,77.8645,-420.068,0,0
387471,76.1152,-417.301,0,0
388773,74.6966,-413.603,0,0
390074,74.3552,-409.109,0,0
391376,75.415,-404.626,0,0
392677,77.8959,-401.095,0,0
393979,80.4928,-399.263,0,0
395280.7,82.5886,-398.093,0,0
396582.325,84.3853,-397.634,0,0
397883.95,85.5597,-397.804,0,0
399185.575,85.8845,-398.146,0,0
400006.6,85.781,-398.52,0,0

File: sample_4.csv
Frequency (Hz),Impedance (ohms),Phase (Radians),Temperature (C),Humidity (%)
10000.0,265.377,-11983,0,0
11301.625,235.863,-10615.9,0,0
12603.25,214.844,-9523.35,0,0
13904.875,195.277,-8633.1,0,0
15206.5,182.209,-7902.29,0,0
16508.125,196.687,-7287.88,0,0
17809.75,157.339,-6771.5,0,0
19111.375,146.401,-6310.44,0,0
20413.0,141.546,-5906.11,0,0
21714.625,147.483,-5557.77,0,0
23016.25,126.035,-5255.76,0,0
24317.875,117.099,-4968.74,0,0
25619.5,113.425,-4713.11,0,0
26921.1,107.377,-4481.15,0,0
28222.7,122.708,-4275.66,0,0
29524.4,117.164,-4098.22,0,0
30826,99.7933,-3922.7,0,0
32127.6,101.796,-3761.17,0,0
33429.2,90.684,-3618.46,0,0
34730.9,85.5196,-3478.61,0,0
36032.5,82.135,-3350,0,0
37334.1,79.9151,-3230.32,0,0
38635.7,77.6125,-3116.94,0,0
39937.4,77.6227,-3010.52,0,0
41239,80.8439,-2914.69,0,0
42540.6,79.7955,-2827.06,0,0
43842.225,74.1425,-2742.27,0,0
45143.85,71.4304,-2660.21,0,0
46445.475,71.3733,-2582.2,0,0
47747.1,70.0442,-2512.5,0,0
49048.725,66.3765,-2442.28,0,0
50350.35,64.7755,-2374.67,0,0
51651.975,64.2714,-2309.63,0,0
52953.6,66.1856,-2245.86,0,0
54255.225,73.9297,-2187.92,0,0
55556.85,71.6716,-2145.57,0,0
56858.475,65.6001,-2090.61,0,0
58160.1,66.3328,-2037.96,0,0
59461.7,70.196,-1987.24,0,0
60763.3,80.6705,-1948.1,0,0
62065,69.6504,-1915.09,0,0
63366.6,64.2952,-1868.86,0,0
64668.2,64.1506,-1825.33,0,0
65969.8,66.232,-1783.91,0,0
67271.5,69.109,-1747.22,0,0
68573.1,74.3092,-1717.27,0,0
69874.7,67.0562,-1688.88,0,0
71176.3,64.9443,-1653.62,0,0
72478,59.1639,-1621.89,0,0
73779.6,57.5474,-1585.3,0,0
75081.2,59.4855,-1551.74,0,0
76382.825,62.0292,-1522.43,0,0
77684.45,65.5968,-1493.95,0,0
78986.075,64.7705,-1471.88,0,0
80287.7,61.6608,-1445.01,0,0
81589.325,61.4514,-1418.89,0,0
82890.95,60.2112,-1394.17,0,0
84192.575,58.7429,-1369.43,0,0
85494.2,57.5975,-1345.14,0,0
86795.825,56.5328,-1321.12,0,0
88097.45,54.881,-1297.94,0,0
89399.075,53.7785,-1273.32,0,0
90700.7,53.8053,-1250.17,0,0
92002.3,54.0119,-1227.01,0,0
93303.9,55.6876,-1205.74,0,0
94605.6,54.2346,-1186.11,0,0
95907.2,53.3244,-1163.85,0,0
97208.8,53.5618,-1142,0,0
98510.4,54.5303,-1120.3,0,0
99812.1,56.6135,-1099.62,0,0
101114,60.066,-1080.32,0,0
102415,59.6565,-1064.78,0,0
103717,57.1887,-1042.64,0,0
105019,59.9562,-1019.19,0,0
106320.175,65.8924,-998.068,0,0
107621.8,72.057,-979.39,0,0
108923.425,79.8761,-961.485,0,0
110225.05,88.2809,-947.487,0,0
111526.675,94.7697,-935.336,0,0
112828.3,100.88,-924.004,0,0
114129.925,105.737,-914.427,0,0
115431.55,109.223,-906.131,0,0
116733.175,110.293,-897.675,0,0
118034.8,110.041,-887.557,0,0
119336.425,111.796,-875.069,0,0
120638.05,117.849,-871.186,0,0
121939.675,110.197,-866.263,0,0
123241,104.731,-854.2,0,0
124543,101.795,-841.195,0,0
125845,101.213,-828.959,0,0
127146,99.0326,-819.792,0,0
128448,94.2367,-810.692,0,0
129749,85.2257,-798.071,0,0
131051,78.4682,-780.507,0,0
132353,74.5038,-761.53,0,0
133654,72.6636,-742.257,0,0
134956,72.4264,-722.989,0,0
136258,73.6445,-704.163,0,0
137559,75.7032,-686.129,0,0
138860.775,77.3984,-667.518,0,0
140162.4,80.6353,-648.113,0,0
141464.025,85.7991,-628.836,0,0
142765.65,91.8607,-610.679,0,0
144067.275,98.4486,-592.953,0,0
145368.9,105.03,-575.018,0,0
146670.525,113.059,-556.148,0,0
147972.15,122.946,-537.452,0,0
149273.775,134.474,-519.086,0,0
150575.4,147.896,-499.732,0,0
151877.025,165.593,-481.857,0,0
153178.65,187.726,-467.685,0,0
154480,210.187,-460.494,0,0
155782,229.655,-455.735,0,0
157084,246.664,-453.93,0,0
158385,261.497,-450.937,0,0
159687,279.356,-449.888,0,0
160988,295.547,-453.467,0,0
162290,305.717,-459.096,0,0
163592,308.599,-462.026,0,0
164893,313.05,-454.835,0,0
166195,326.161,-442.454,0,0
167497,352.2,-436.69,0,0
168798,380.706,-445.361,0,0
170100,406.852,-468.732,0,0
171401.375,414.438,-506.351,0,0
172703.0,398.127,-540.898,0,0
174004.625,366.573,-556.712,0,0
175306.25,334.944,-554.233,0,0
176607.875,309.718,-535.366,0,0
177909.5,298.174,-511.651,0,0
179211.125,294.378,-488.007,0,0
180512.75,297.58,-467.311,0,0
181814.375,302.027,-450.131,0,0
183116.0,305.674,-434.286,0,0
184417.625,309.308,-415.7,0,0
185719.25,315.578,-395.262,0,0
187021,323.517,-373.506,0,0
188322,334.06,-348.208,0,0
189624,349.883,-320.05,0,0
190926,372.583,-289.817,0,0
192227,403.974,-258.774,0,0
193529,444.923,-230.503,0,0
194831,494.641,-206.707,0,0
196132,553.562,-186.869,0,0
197434,625.45,-173.961,0,0
198735,713.775,-173.222,0,0
200037,819.968,-203.098,0,0
201339,920.883,-274.584,0,0
202640.35,994.383,-379.863,0,0
203941.975,1037.69,-504.031,0,0
205243.6,1037.81,-632.055,0,0
206545.225,1005.83,-753.754,0,0
207846.85,938.113,-858.198,0,0
209148.475,847.285,-926.579,0,0
210450.1,759.489,-955.842,0,0
211751.725,686.064,-963.401,0,0
213053.35,625.406,-960.364,0,0
214354.975,579.713,-945.224,0,0
215656.6,551.981,-938.392,0,0
216958.225,521.923,-937.537,0,0
218259.85,491.592,-935.075,0,0
219561,463.38,-931.317,0,0
220863,434.292,-925.029,0,0
222165,409.723,-914.398,0,0
223466,390.439,-903.381,0,0
224768,375.714,-897.71,0,0
226070,357.508,-894.904,0,0
227371,336.278,-891.952,0,0
228673,312.044,-884.954,0,0
229974,289.929,-872.929,0,0
231276,270.166,-858.615,0,0
232578,254.834,-843.06,0,0
233879,240.462,-827.42,0,0
235180.95,229.575,-811.625,0,0
236482.575,219.576,-796.776,0,0
237784.2,210.834,-780.423,0,0
239085.825,205.443,-764.728,0,0
240387.45,202.004,-750.275,0,0
241689.075,200.078,-737.733,0,0
242990.7,198.877,-727.459,0,0
244292.325,196.303,-719.627,0,0
245593.95,191.406,-711.344,0,0
246895.575,185.929,-701.135,0,0
248197.2,181.623,-689.333,0,0
249498.825,179.507,-676.673,0,0
250800,179.62,-665.86,0,0
252102,177.99,-656.72,0,0
253404,175.878,-645.528,0,0
254705,174.271,-634.193,0,0
256007,172.628,-619.485,0,0
257309,174.736,-602.159,0,0
258610,182.203,-584.236,0,0
259912,194.689,-568.519,0,0
261213,211.906,-555.775,0,0
262515,233.355,-548.232,0,0
263817,256.078,-550.436,0,0
265118,274.429,-557.693,0,0
266420,291.422,-567.437,0,0
267721.55,308.418,-586.065,0,0
269023.175,312.799,-612.204,0,0
270324.8,306.166,-633.248,0,0
271626.425,297.275,-648.829,0,0
272928.05,285.185,-661.61,0,0
274229.675,272.992,-671.709,0,0
275531.3,255.834,-681.069,0,0
276832.925,234.513,-683.429,0,0
278134.55,214.255,-675.707,0,0
279436.175,203.533,-662.121,0,0
280737.8,199.511,-652.905,0,0
282039.425,196.611,-643.988,0,0
283341,197.807,-639.198,0,0
284643,197.089,-639.533,0,0
285944,190.739,-640.573,0,0
287246,181.363,-637.161,0,0
288548,173.287,-628.018,0,0
289849,170.81,-615.994,0,0
291151,174.658,-604.385,0,0
292452,184.852,-598.279,0,0
293754,195.14,-601.043,0,0
295056,200.258,-611.349,0,0
296357,196.07,-621.994,0,0
297659,187.341,-627.947,0,0
298960.525,178.269,-630.092,0,0
300262.15,168.995,-630.314,0,0
301563.775,160.069,-628.277,0,0
302865.4,152.586,-625.042,0,0
304167.025,145.121,-621.289,0,0
305468.65,138.451,-616.27,0,0
306770.275,132.991,-610.373,0,0
308071.9,129.225,-604.593,0,0
309373.525,125.995,-599.938,0,0
310675.15,122.194,-595.133,0,0
311976.775,119.153,-589.769,0,0
313278.4,116.909,-584.366,0,0
314580,115.599,-579.632,0,0
315882,114.399,-575.529,0,0
317183,113.337,-571.951,0,0
318485,112.845,-568.85,0,0
319787,112.182,-567.607,0,0
321088,109.694,-567.583,0,0
322390,104.527,-566.997,0,0
323691,98.1136,-563.782,0,0
324993,92.772,-558.383,0,0
326295,88.8637,-552.439,0,0
327596,85.6637,-546.349,0,0
328898,82.9262,-539.72,0,0
330200,81.6665,-532.643,0,0
331501.125,82.2829,-526.072,0,0
332802.75,83.7109,-522.083,0,0
334104.375,83.2165,-519.413,0,0
335406.0,81.5163,-516.08,0,0
336707.625,79.5935,-511.811,0,0
338009.25,77.7741,-506.738,0,0
339310.875,76.3491,-500.675,0,0
340612.5,76.6016,-493.834,0,0
341914.125,78.7755,-487.423,0,0
343215.75,82.3195,-482.786,0,0
344517.375,85.9997,-480.188,0,0
345819.0,88.7364,-479.167,0,0
347121,90.0091,-479.165,0,0
348422,89.7103,-478.852,0,0
349724,88.9239,-478.092,0,0
351025,87.192,-477,0,0
352327,85.0247,-474.332,0,0
353629,84.113,-471.192,0,0
354930,83.2274,-468.349,0,0
356232,82.4373,-465.242,0,0
357534,81.9534,-462.318,0,0
358835,81.2939,-459.409,0,0
360137,80.3715,-456.472,0,0
361438,79.4826,-452.557,0,0
362740.1,79.6433,-448.876,0,0
364041.725,79.4609,-445.591,0,0
365343.35,79.1252,-441.584,0,0
366644.975,79.4464,-437.114,0,0
367946.6,80.2304,-432.137,0,0
369248.225,82.6903,-426.817,0,0
370549.85,86.7534,-422.142,0,0
371851.475,92.6774,-419.195,0,0
373153.1,98.8151,-419.664,0,0
374454.725,102.401,-422.453,0,0
375756.35,103.711,-425.088,0,0
377057.975,103.48,-426.944,0,0
378359.6,103.442,-427.685,0,0
379661,103.197,-428.771,0,0
380963,101.983,-429.522,0,0
382264,101.735,-428.901,0,0
383566,102.581,-430.217,0,0
384868,101.53,-433.088,0,0
386169,97.8757,-435.684,0,0
387471,92.6371,-435.624,0,0
388773,88.5558,-432.925,0,0
390074,86.9983,-429.977,0,0
391376,86.2826,-429.116,0,0
392677,83.8338,-429.079,0,0
393979,80.2406,-428.606,0,0
395280.7,75.9042,-426.788,0,0
396582.325,71.5422,-423.616,0,0
397883.95,67.7811,-419.298,0,0
399185.575,64.9056,-414.215,0,0
400006.6,63.5877,-410.605,0,0