Folder: ML_Dmg_Mehdi_Dataset/Accelerated corrosion test data/2025-10-20_06-00-03 (part 2)

File: sample_3.csv
Frequency (Hz),Impedance (ohms),Phase (Radians),Temperature (C),Humidity (%)
10000.0,253.224,-11949.7,0,0
11301.625,225.852,-10584.7,0,0
12603.25,204.572,-9499.45,0,0
13904.875,187.208,-8614.77,0,0
15206.5,175.877,-7872.95,0,0
16508.125,162.703,-7271.75,0,0
17809.75,158.075,-6736.71,0,0
19111.375,148.15,-6279.31,0,0
20413.0,163.042,-5872.66,0,0
21714.625,141.437,-5547.79,0,0
23016.25,128.986,-5238.21,0,0
24317.875,121.152,-4955.45,0,0
25619.5,114.465,-4704.39,0,0
26921.1,109.801,-4470.8,0,0
28222.7,105.167,-4260.92,0,0
29524.4,110.281,-4082.01,0,0
30826,102.713,-3908.28,0,0
32127.6,102.619,-3740.75,0,0
33429.2,100.448,-3616.39,0,0
34730.9,88.8047,-3476.02,0,0
36032.5,84.1993,-3346.39,0,0
37334.1,81.0807,-3227.09,0,0
38635.7,78.5819,-3115.2,0,0
39937.4,76.1054,-3011.03,0,0
41239,74.9402,-2912.83,0,0
42540.6,73.8468,-2822.05,0,0
43842.225,72.416,-2735.27,0,0
45143.85,71.435,-2654.84,0,0
46445.475,70.1991,-2577.58,0,0
47747.1,70.8307,-2504.27,0,0
49048.725,68.897,-2438.23,0,0
50350.35,67.0012,-2372.07,0,0
51651.975,66.5103,-2308.67,0,0
52953.6,66.6858,-2248.21,0,0
54255.225,69.2987,-2192.17,0,0
55556.85,67.1847,-2143.7,0,0
56858.475,61.9913,-2090.67,0,0
58160.1,61.3356,-2038.09,0,0
59461.7,61.8144,-1988.06,0,0
60763.3,63.1037,-1940.96,0,0
62065,64.9509,-1895.39,0,0
63366.6,68.8065,-1851.16,0,0
64668.2,77.211,-1808.7,0,0
65969.8,92.5538,-1781.41,0,0
67271.5,75.6784,-1756.72,0,0
68573.1,76.1547,-1718.37,0,0
69874.7,77.2551,-1688.14,0,0
71176.3,72.1585,-1657.77,0,0
72478,71.1501,-1624.63,0,0
73779.6,70.1241,-1596.5,0,0
75081.2,66.3657,-1568.72,0,0
76382.825,62.4453,-1539.64,0,0
77684.45,59.475,-1510.65,0,0
78986.075,56.8044,-1481.8,0,0
80287.7,55.0514,-1453.39,0,0
81589.325,53.8143,-1425.76,0,0
82890.95,53.1656,-1398.96,0,0
84192.575,52.736,-1372.94,0,0
85494.2,52.5628,-1347.64,0,0
86795.825,52.5379,-1323,0,0
88097.45,53.0174,-1298.81,0,0
89399.075,54.2836,-1274.68,0,0
90700.7,56.0873,-1252.86,0,0
92002.3,58.0875,-1231.65,0,0
93303.9,60.7248,-1212.11,0,0
94605.6,61.8819,-1197.18,0,0
95907.2,56.8932,-1178.84,0,0
97208.8,55.5599,-1157.27,0,0
98510.4,55.3939,-1137.07,0,0
99812.1,55.2245,-1117.72,0,0
101114,55.0291,-1097.87,0,0
102415,56.4575,-1077.23,0,0
103717,60.1216,-1059.35,0,0
105019,63.6633,-1044.55,0,0
106320.175,63.7276,-1030.72,0,0
107621.8,61.9489,-1015.3,0,0
108923.425,59.8943,-998.417,0,0
110225.05,59.5642,-979.975,0,0
111526.675,61.5159,-961.744,0,0
112828.3,63.7534,-945.719,0,0
114129.925,64.841,-929.958,0,0
115431.55,66.2627,-912.877,0,0
116733.175,69.3824,-895.791,0,0
118034.8,75.1641,-878.63,0,0
119336.425,82.1072,-865.645,0,0
120638.05,89.3592,-859.593,0,0
121939.675,85.6017,-851.384,0,0
123241,85.9881,-837.015,0,0
124543,88.039,-824.791,0,0
125845,90.3237,-813.841,0,0
127146,90.9026,-803.897,0,0
128448,90.2452,-794.036,0,0
129749,89.2437,-781.818,0,0
131051,90.247,-769.996,0,0
132353,88.8935,-759.277,0,0
133654,87.757,-747.457,0,0
134956,86.3421,-734.719,0,0
136258,84.879,-721.591,0,0
137559,84.179,-706.504,0,0
138860.775,85.772,-693.016,0,0
140162.4,85.1248,-679.96,0,0
141464.025,84.1276,-666.46,0,0
142765.65,82.7029,-650.5,0,0
144067.275,82.6505,-633.23,0,0
145368.9,84.0954,-615.205,0,0
146670.525,86.2493,-596.366,0,0
147972.15,90.1864,-576.852,0,0
149273.775,95.9834,-556.487,0,0
150575.4,105.455,-536.261,0,0
151877.025,117.205,-518.413,0,0
153178.65,129.207,-503.974,0,0
154480,139.708,-490.254,0,0
155782,149.133,-475.335,0,0
157084,160.485,-458.101,0,0
158385,176.459,-447.257,0,0
159687,181.202,-433.46,0,0
160988,193.337,-408.745,0,0
162290,214.478,-381.895,0,0
163592,246.062,-356.082,0,0
164893,292.84,-340.659,0,0
166195,344.647,-347.016,0,0
167497,388.19,-372.707,0,0
168798,411.475,-406.361,0,0
170100,417.525,-442.537,0,0
171401.375,412.485,-456.842,0,0
172703.0,415.119,-467.276,0,0
174004.625,422.606,-479.973,0,0
175306.25,430.015,-496.289,0,0
176607.875,432.002,-526.15,0,0
177909.5,402.892,-552.273,0,0
179211.125,372.413,-542.471,0,0
180512.75,368.03,-525.519,0,0
181814.375,374.487,-521.46,0,0
183116.0,372.218,-529.486,0,0
184417.625,359.846,-533.436,0,0
185719.25,341.798,-527.267,0,0
187021,330.117,-507.531,0,0
188322,328.703,-489.256,0,0
189624,329.346,-469.843,0,0
190926,337.953,-451.858,0,0
192227,346.456,-437.025,0,0
193529,357.677,-417.026,0,0
194831,378.665,-402.002,0,0
196132,405.36,-390.851,0,0
197434,431.189,-396.156,0,0
198735,445.89,-405.054,0,0
200037,452.82,-406.378,0,0
201339,461.465,-396.097,0,0
202640.35,485.685,-385.514,0,0
203941.975,516.137,-387.263,0,0
205243.6,542.203,-402.067,0,0
206545.225,554.906,-410.905,0,0
207846.85,576.359,-409.939,0,0
209148.475,611.839,-417.882,0,0
210450.1,644.196,-438.256,0,0
211751.725,674.789,-468.208,0,0
213053.35,699.827,-503.396,0,0
214354.975,715.738,-548.889,0,0
215656.6,722.044,-591.955,0,0
216958.225,723.317,-638.024,0,0
218259.85,711.456,-683.793,0,0
219561,695.373,-720.63,0,0
220863,680.187,-757.649,0,0
222165,655.484,-800.459,0,0
223466,610.648,-832.229,0,0
224768,568.297,-840.43,0,0
226070,541.119,-841.956,0,0
227371,520.828,-849.52,0,0
228673,493.827,-860.046,0,0
229974,467.591,-866.081,0,0
231276,438.849,-868.914,0,0
232578,412.496,-867.264,0,0
233879,388.618,-864.353,0,0
235180.95,366.708,-860.749,0,0
236482.575,342.756,-857.722,0,0
237784.2,318.412,-850.799,0,0
239085.825,295.045,-839.09,0,0
240387.45,275.103,-825.029,0,0
241689.075,257.484,-808.086,0,0
242990.7,246.685,-788.764,0,0
244292.325,240.075,-776.01,0,0
245593.95,230.793,-762.178,0,0
246895.575,224.626,-747.675,0,0
248197.2,219.73,-734.082,0,0
249498.825,219.405,-720.714,0,0
250800,219.014,-713.43,0,0
252102,214.811,-707.294,0,0
253404,208.331,-698.561,0,0
254705,202.127,-685.648,0,0
256007,200.139,-669.65,0,0
257309,204.6,-654.182,0,0
258610,212.289,-642.01,0,0
259912,224.632,-632.792,0,0
261213,241.769,-630.411,0,0
262515,254.907,-643.16,0,0
263817,255.2,-658.156,0,0
265118,247.595,-670.176,0,0
266420,233.872,-677.986,0,0
267721.55,217.004,-676.282,0,0
269023.175,205.197,-668.389,0,0
270324.8,197.295,-658.574,0,0
271626.425,193.66,-648.638,0,0
272928.05,191.221,-641.1,0,0
274229.675,188.987,-631.864,0,0
275531.3,190.183,-621.716,0,0
276832.925,195.956,-613.192,0,0
278134.55,204.173,-609.974,0,0
279436.175,211.498,-612.23,0,0
280737.8,214.655,-618.296,0,0
282039.425,212.862,-624.666,0,0
283341,207.6,-629.172,0,0
284643,200.848,-630.631,0,0
285944,193.868,-629.535,0,0
287246,188.36,-626.204,0,0
288548,184.733,-622.676,0,0
289849,183.412,-619.603,0,0
291151,181.022,-619.845,0,0
292452,175.58,-619.326,0,0
293754,169.988,-614.954,0,0
295056,168.007,-609.504,0,0
296357,168.254,-606.608,0,0
297659,167.69,-606.218,0,0
298960.525,165.347,-606.501,0,0
300262.15,161.782,-606.876,0,0
301563.775,156.738,-606.577,0,0
302865.4,150.788,-604.724,0,0
304167.025,145.296,-601.451,0,0
305468.65,140.344,-597.086,0,0
306770.275,136.593,-592.165,0,0
308071.9,134.016,-587.067,0,0
309373.525,132.579,-582.74,0,0
310675.15,131.454,-579.81,0,0
311976.775,129.02,-577.964,0,0
313278.4,124.967,-575.351,0,0
314580,120.736,-570.431,0,0
315882,118.651,-564.25,0,0
317183,118.459,-559.038,0,0
318485,118.6,-555.071,0,0
319787,118.587,-551.736,0,0
321088,118.568,-548.47,0,0
322390,119.727,-545.498,0,0
323691,121.574,-544.806,0,0
324993,121.464,-546.232,0,0
326295,118.954,-547.708,0,0
327596,114.793,-548.036,0,0
328898,110.121,-546.865,0,0
330200,105.67,-544.579,0,0
331501.125,101.342,-542.072,0,0
332802.75,96.682,-538.852,0,0
334104.375,92.1868,-534.765,0,0
335406.0,88.0477,-529.784,0,0
336707.625,84.8265,-524.048,0,0
338009.25,82.3714,-518.081,0,0
339310.875,80.4272,-511.982,0,0
340612.5,79.4078,-505.163,0,0
341914.125,80.4182,-498.402,0,0
343215.75,83.0447,-493.419,0,0
344517.375,85.3764,-490.708,0,0
345819.0,86.4758,-489.046,0,0
347121,86.0121,-487.673,0,0
348422,84.5982,-485.02,0,0
349724,83.788,-480.947,0,0
351025,84.7539,-477.015,0,0
352327,86.3762,-474.838,0,0
353629,86.9029,-473.881,0,0
354930,85.9885,-472.743,0,0
356232,84.5758,-470.909,0,0
357534,82.9694,-468.183,0,0
358835,82.1152,-464.59,0,0
360137,82.2412,-461.545,0,0
361438,82.1162,-459.152,0,0
362740.1,81.414,-456.346,0,0
364041.725,81.7539,-452.803,0,0
365343.35,83.0104,-450.244,0,0
366644.975,84.211,-449.353,0,0
367946.6,83.3057,-449.235,0,0
369248.225,80.8517,-447.273,0,0
370549.85,79.9422,-443.078,0,0
371851.475,81.3835,-440.302,0,0
373153.1,81.7952,-439.8,0,0
374454.725,80.129,-438.584,0,0
375756.35,78.4451,-435.934,0,0
377057.975,77.6353,-432.396,0,0
378359.6,77.8958,-428.855,0,0
379661,79.0996,-426.219,0,0
380963,80.031,-424.935,0,0
382264,79.9976,-423.711,0,0
383566,79.6163,-422.735,0,0
384868,78.2711,-421.518,0,0
386169,76.6382,-419.437,0,0
387471,74.9419,-416.508,0,0
388773,73.6989,-412.694,0,0
390074,73.5247,-408.189,0,0
391376,74.8504,-403.744,0,0
392677,77.2719,-400.494,0,0
393979,79.6941,-398.56,0,0
395280.7,81.8104,-397.27,0,0
396582.325,83.6648,-396.724,0,0
397883.95,84.9616,-396.833,0,0
399185.575,85.5395,-397.338,0,0
400006.6,85.3325,-397.816,0,0

File: sample_4.csv
Frequency (Hz),Impedance (ohms),Phase (Radians),Temperature (C),Humidity (%)
10000.0,261.988,-11980.3,0,0
11301.625,232.841,-10613.4,0,0
12603.25,212.677,-9521.62,0,0
13904.875,192.901,-8631.22,0,0
15206.5,180.392,-7900.2,0,0
16508.125,196.33,-7286.79,0,0
17809.75,155.327,-6769.54,0,0
19111.375,144.549,-6308.36,0,0
20413.0,139.738,-5903.93,0,0
21714.625,146.459,-5557.38,0,0
23016.25,124.25,-5253.68,0,0
24317.875,115.58,-4966.82,0,0
25619.5,112.114,-4711.14,0,0
26921.1,105.735,-4479.4,0,0
28222.7,120.647,-4276.54,0,0
29524.4,113.393,-4096.89,0,0
30826,98.77,-3920.83,0,0
32127.6,100.088,-3759.18,0,0
33429.2,89.463,-3616.68,0,0
34730.9,84.426,-3477.22,0,0
36032.5,81.2347,-3348.56,0,0
37334.1,78.9093,-3228.68,0,0
38635.7,76.6875,-3115.48,0,0
39937.4,76.9512,-3008.91,0,0
41239,79.9938,-2913.41,0,0
42540.6,78.3971,-2825.57,0,0
43842.225,73.1722,-2740.7,0,0
45143.85,70.9684,-2659.3,0,0
46445.475,70.2312,-2580.92,0,0
47747.1,69.6867,-2510.96,0,0
49048.725,65.583,-2441.09,0,0
50350.35,64.0575,-2373.1,0,0
51651.975,63.4771,-2308.08,0,0
52953.6,65.294,-2244.52,0,0
54255.225,73.3311,-2187.01,0,0
55556.85,71.0508,-2144.24,0,0
56858.475,65.1909,-2089.35,0,0
58160.1,65.9484,-2036.67,0,0
59461.7,69.8224,-1986.16,0,0
60763.3,80.1284,-1947.06,0,0
62065,69.376,-1914.06,0,0
63366.6,63.6176,-1867.81,0,0
64668.2,63.7586,-1824.11,0,0
65969.8,65.7997,-1782.81,0,0
67271.5,69.1048,-1746.38,0,0
68573.1,74.0074,-1716.67,0,0
69874.7,66.456,-1687.59,0,0
71176.3,64.4255,-1652.91,0,0
72478,58.6208,-1620.75,0,0
73779.6,57.1665,-1584.39,0,0
75081.2,59.1387,-1550.81,0,0
76382.825,61.6781,-1521.57,0,0
77684.45,65.1543,-1493.26,0,0
78986.075,64.1636,-1471.08,0,0
80287.7,61.1397,-1444.15,0,0
81589.325,60.893,-1418.06,0,0
82890.95,59.6659,-1393.28,0,0
84192.575,58.1919,-1368.42,0,0
85494.2,57.0327,-1344.15,0,0
86795.825,56.1462,-1320.1,0,0
88097.45,54.4716,-1297.02,0,0
89399.075,53.3266,-1272.51,0,0
90700.7,53.264,-1249.29,0,0
92002.3,53.6284,-1226.08,0,0
93303.9,55.1892,-1204.91,0,0
94605.6,53.8049,-1185.18,0,0
95907.2,52.8597,-1162.77,0,0
97208.8,53.2885,-1140.92,0,0
98510.4,54.2626,-1119.31,0,0
99812.1,56.4827,-1098.49,0,0
101114,59.9279,-1079.49,0,0
102415,59.3766,-1064.1,0,0
103717,57.0412,-1041.6,0,0
105019,60.01,-1018.05,0,0
106320.175,66.0336,-997.018,0,0
107621.8,72.3796,-978.492,0,0
108923.425,80.2836,-960.703,0,0
110225.05,88.7909,-946.842,0,0
111526.675,95.3023,-935.038,0,0
112828.3,101.471,-924.103,0,0
114129.925,106.122,-914.908,0,0
115431.55,109.23,-906.775,0,0
116733.175,110.048,-898.328,0,0
118034.8,109.337,-888.211,0,0
119336.425,110.881,-875.555,0,0
120638.05,116.363,-871.533,0,0
121939.675,108.817,-866.134,0,0
123241,103.492,-853.974,0,0
124543,100.576,-840.894,0,0
125845,99.7855,-828.81,0,0
127146,97.3448,-819.292,0,0
128448,92.2504,-809.862,0,0
129749,83.5862,-796.463,0,0
131051,77.3069,-778.823,0,0
132353,73.686,-759.815,0,0
133654,72.0312,-740.616,0,0
134956,71.9957,-721.496,0,0
136258,73.321,-702.729,0,0
137559,75.2851,-684.783,0,0
138860.775,77.1062,-666.154,0,0
140162.4,80.4045,-646.88,0,0
141464.025,85.5358,-627.628,0,0
142765.65,91.4675,-609.463,0,0
144067.275,97.8743,-591.583,0,0
145368.9,104.753,-573.36,0,0
146670.525,113.138,-554.523,0,0
147972.15,123.156,-535.876,0,0
149273.775,134.655,-517.676,0,0
150575.4,148.276,-498.403,0,0
151877.025,166.16,-480.473,0,0
153178.65,188.465,-466.508,0,0
154480,210.98,-459.783,0,0
155782,229.762,-455.466,0,0
157084,246.268,-452.982,0,0
158385,261.388,-449.271,0,0
159687,279.789,-448.932,0,0
160988,295.744,-451.747,0,0
162290,305.948,-457.756,0,0
163592,308.833,-460.006,0,0
164893,314.093,-451.952,0,0
166195,328.515,-439.544,0,0
167497,356.327,-434.896,0,0
168798,385.472,-444.786,0,0
170100,411.604,-470.723,0,0
171401.375,416.921,-510.273,0,0
172703.0,398.013,-544.699,0,0
174004.625,365.055,-558.732,0,0
175306.25,333.358,-554.681,0,0
176607.875,309.075,-534.991,0,0
177909.5,298.018,-511.038,0,0
179211.125,295.018,-487.405,0,0
180512.75,298.45,-467.427,0,0
181814.375,302.677,-450.68,0,0
183116.0,305.707,-434.863,0,0
184417.625,308.988,-415.709,0,0
185719.25,315.319,-394.958,0,0
187021,322.996,-372.327,0,0
188322,334.486,-345.99,0,0
189624,351.32,-317.197,0,0
190926,375.51,-286.502,0,0
192227,409.202,-255.668,0,0
193529,452.652,-228.554,0,0
194831,504.603,-207.084,0,0
196132,565.47,-190.548,0,0
197434,638.52,-182.389,0,0
198735,726.419,-187.741,0,0
200037,828.331,-225.735,0,0
201339,920.579,-302.662,0,0
202640.35,982.506,-407.718,0,0
203941.975,1014.31,-526.631,0,0
205243.6,1009.11,-645.721,0,0
206545.225,974.66,-756.18,0,0
207846.85,909.671,-850.219,0,0
209148.475,825.427,-912.367,0,0
210450.1,744.243,-939.316,0,0
211751.725,676.178,-946.671,0,0
213053.35,618.924,-944.136,0,0
214354.975,577.438,-929.776,0,0
215656.6,551.801,-924.643,0,0
216958.225,523.133,-925.087,0,0
218259.85,494.658,-923.746,0,0
219561,467.609,-921.418,0,0
220863,439.736,-916.659,0,0
222165,416.099,-908.287,0,0
223466,397.134,-899.54,0,0
224768,380.826,-895.927,0,0
226070,361.329,-893.887,0,0
227371,338.977,-891.018,0,0
228673,313.985,-884.197,0,0
229974,291.037,-871.678,0,0
231276,270.926,-856.693,0,0
232578,255.368,-840.786,0,0
233879,241.236,-824.146,0,0
235180.95,231.083,-808.036,0,0
236482.575,221.648,-793.051,0,0
237784.2,213.872,-776.895,0,0
239085.825,209.084,-761.554,0,0
240387.45,206.102,-747.707,0,0
241689.075,204.66,-735.887,0,0
242990.7,203.333,-726.546,0,0
244292.325,200.466,-719.28,0,0
245593.95,195.08,-711.229,0,0
246895.575,189.395,-701.064,0,0
248197.2,185.299,-689.272,0,0
249498.825,183.547,-677.06,0,0
250800,183.417,-667.101,0,0
252102,181.062,-658.127,0,0
253404,178.978,-646.942,0,0
254705,176.754,-636.025,0,0
256007,174.889,-620.983,0,0
257309,176.987,-603.407,0,0
258610,184.718,-585.203,0,0
259912,197.974,-569.917,0,0
261213,215.185,-557.989,0,0
262515,236.932,-550.841,0,0
263817,259.169,-554.604,0,0
265118,275.999,-561.567,0,0
266420,294.031,-571.36,0,0
267721.55,310.247,-591.824,0,0
269023.175,312.719,-618.515,0,0
270324.8,304.268,-639.286,0,0
271626.425,294.282,-653.602,0,0
272928.05,281.39,-664.803,0,0
274229.675,269.856,-674.041,0,0
275531.3,253.047,-682.749,0,0
276832.925,231.582,-685.294,0,0
278134.55,211.39,-676.677,0,0
279436.175,201.455,-663.022,0,0
280737.8,197.042,-654.463,0,0
282039.425,193.519,-645.172,0,0
283341,194.9,-639.683,0,0
284643,194.086,-639.886,0,0
285944,187.174,-640.725,0,0
287246,177.845,-635.595,0,0
288548,170.896,-625.499,0,0
289849,169.917,-613.353,0,0
291151,175.141,-602.345,0,0
292452,185.666,-597.652,0,0
293754,195.84,-601.307,0,0
295056,200.123,-612.224,0,0
296357,195.274,-622.94,0,0
297659,186.007,-628.433,0,0
298960.525,176.89,-630.356,0,0
300262.15,167.628,-630.291,0,0
301563.775,158.896,-628.065,0,0
302865.4,151.316,-624.93,0,0
304167.025,143.693,-620.86,0,0
305468.65,137.281,-615.565,0,0
306770.275,131.98,-609.568,0,0
308071.9,128.575,-603.596,0,0
309373.525,125.697,-599.114,0,0
310675.15,122.111,-594.514,0,0
311976.775,119.13,-589.454,0,0
313278.4,116.914,-584.159,0,0
314580,115.629,-579.741,0,0
315882,114.17,-575.961,0,0
317183,113.088,-572.361,0,0
318485,112.313,-569.522,0,0
319787,111.287,-568.304,0,0
321088,108.454,-568.178,0,0
322390,103.285,-567.297,0,0
323691,96.7252,-563.943,0,0
324993,91.4352,-558.439,0,0
326295,87.339,-552.222,0,0
327596,84.2215,-545.913,0,0
328898,81.4979,-539.165,0,0
330200,80.3682,-531.761,0,0
331501.125,81.2756,-525.142,0,0
332802.75,82.8524,-521.145,0,0
334104.375,82.5873,-518.483,0,0
335406.0,81.0506,-515.205,0,0
336707.625,79.1034,-511.117,0,0
338009.25,77.2305,-506.095,0,0
339310.875,75.8644,-499.896,0,0
340612.5,76.2765,-492.952,0,0
341914.125,78.64,-486.672,0,0
343215.75,82.4312,-482.149,0,0
344517.375,86.1322,-479.832,0,0
345819.0,88.8219,-479.074,0,0
347121,89.8837,-479.197,0,0
348422,89.4865,-478.934,0,0
349724,88.5484,-478.256,0,0
351025,86.4251,-477.001,0,0
352327,84.4388,-474.153,0,0
353629,83.452,-471.055,0,0
354930,82.448,-468.048,0,0
356232,81.7563,-464.758,0,0
357534,81.5287,-461.709,0,0
358835,81.1003,-459.034,0,0
360137,80.0161,-456.24,0,0
361438,79.161,-452.343,0,0
362740.1,79.1005,-448.683,0,0
364041.725,79.016,-445.084,0,0
365343.35,78.8018,-441.186,0,0
366644.975,79.1225,-436.635,0,0
367946.6,80.2366,-431.56,0,0
369248.225,82.8722,-426.609,0,0
370549.85,86.9725,-422.082,0,0
371851.475,92.9257,-419.469,0,0
373153.1,98.8125,-420.208,0,0
374454.725,102.374,-423.049,0,0
375756.35,103.443,-425.947,0,0
377057.975,102.901,-427.742,0,0
378359.6,102.676,-428.39,0,0
379661,102.444,-429.589,0,0
380963,101.116,-430.34,0,0
382264,100.519,-429.974,0,0
383566,100.666,-430.934,0,0
384868,99.7188,-433.211,0,0
386169,96.3483,-435.725,0,0
387471,90.9336,-435.637,0,0
388773,86.735,-432.769,0,0
390074,85.2587,-429.557,0,0
391376,84.4622,-428.529,0,0
392677,82.2198,-428.255,0,0
393979,78.7385,-427.645,0,0
395280.7,74.6143,-425.75,0,0
396582.325,70.4168,-422.617,0,0
397883.95,66.7404,-418.303,0,0
399185.575,63.9458,-413.225,0,0
400006.6,62.8014,-409.592,0,0