Folder: ML_Dmg_Mehdi_Dataset/Accelerated corrosion test data/2025-10-15_12-55-04

Note: README.md
# ML_Dmg_Mehdi_Dataset

File: sample_1.csv
Frequency (Hz),Impedance (ohms),Phase (Radians),Temperature (C),Humidity (%)
10000.0,246.342,-12195.3,0,0
11301.625,215.692,-10801.5,0,0
12603.25,198.554,-9702.59,0,0
13904.875,185.701,-8780.05,0,0
15206.5,188.214,-8046.75,0,0
16508.125,157.637,-7422.98,0,0
17809.75,147.895,-6889.08,0,0
19111.375,134.928,-6418.99,0,0
20413.0,158.08,-5976.66,0,0
21714.625,138.781,-5659.24,0,0
23016.25,125.817,-5357.29,0,0
24317.875,114.88,-5065.49,0,0
25619.5,105.354,-4800.82,0,0
26921.1,115.226,-4552.67,0,0
28222.7,111.014,-4349.17,0,0
29524.4,107.781,-4183.05,0,0
30826,101.139,-3995.73,0,0
32127.6,98.0833,-3838.25,0,0
33429.2,88.4827,-3694.54,0,0
34730.9,82.5422,-3552.71,0,0
36032.5,77.8878,-3421.95,0,0
37334.1,75.5981,-3299.58,0,0
38635.7,73.4235,-3186.33,0,0
39937.4,70.7377,-3079.55,0,0
41239,71.7878,-2980.98,0,0
42540.6,70.8661,-2888.38,0,0
43842.225,67.8504,-2801.95,0,0
45143.85,68.1656,-2720.24,0,0
46445.475,65.2462,-2643.65,0,0
47747.1,63.8247,-2570.28,0,0
49048.725,61.4453,-2500.2,0,0
50350.35,59.4722,-2433.72,0,0
51651.975,58.5678,-2370.19,0,0
52953.6,57.809,-2309.33,0,0
54255.225,56.6797,-2252.42,0,0
55556.85,55.6294,-2196.98,0,0
56858.475,54.7988,-2144.02,0,0
58160.1,54.4514,-2093.45,0,0
59461.7,54.2681,-2045.54,0,0
60763.3,54.3883,-1999.6,0,0
62065,53.0633,-1955.7,0,0
63366.6,52.4363,-1912.18,0,0
64668.2,52.9393,-1870.03,0,0
65969.8,54.9305,-1832.4,0,0
67271.5,53.9662,-1795.86,0,0
68573.1,53.2485,-1760.16,0,0
69874.7,52.0826,-1726.42,0,0
71176.3,50.6374,-1691.89,0,0
72478,48.478,-1658.25,0,0
73779.6,48.1046,-1624.72,0,0
75081.2,48.458,-1592.49,0,0
76382.825,49.2215,-1561.5,0,0
77684.45,50.3579,-1532.16,0,0
78986.075,51.8445,-1504.67,0,0
80287.7,51.1562,-1478.17,0,0
81589.325,50.5607,-1450.33,0,0
82890.95,51.2331,-1423.5,0,0
84192.575,52.9671,-1397.47,0,0
85494.2,54.9717,-1372.74,0,0
86795.825,55.8903,-1349.8,0,0
88097.45,56.2624,-1326.43,0,0
89399.075,58.1009,-1301.84,0,0
90700.7,61.3531,-1278.69,0,0
92002.3,67.7494,-1257.54,0,0
93303.9,75.1416,-1240.74,0,0
94605.6,73.6956,-1233.79,0,0
95907.2,66.6933,-1214.98,0,0
97208.8,64.6232,-1194.28,0,0
98510.4,64.1853,-1173.57,0,0
99812.1,63.3027,-1154.1,0,0
101114,63.2923,-1134.01,0,0
102415,63.4194,-1112.48,0,0
103717,68.2144,-1091.18,0,0
105019,75.2473,-1073.9,0,0
106320.175,81.5949,-1057.62,0,0
107621.8,88.0914,-1045.53,0,0
108923.425,92.1988,-1035.02,0,0
110225.05,93.8917,-1026.72,0,0
111526.675,93.8613,-1014.04,0,0
112828.3,95.7952,-1004.61,0,0
114129.925,94.4325,-996.43,0,0
115431.55,91.0728,-986.535,0,0
116733.175,86.4534,-974.224,0,0
118034.8,82.3417,-959.715,0,0
119336.425,80.8904,-944.078,0,0
120638.05,81.388,-929.715,0,0
121939.675,80.4393,-917.228,0,0
123241,79.0749,-902.87,0,0
124543,78.9292,-887.835,0,0
125845,79.7514,-873.094,0,0
127146,81.1031,-858.841,0,0
128448,83.1705,-844.302,0,0
129749,85.706,-830.437,0,0
131051,90.7643,-817.23,0,0
132353,94.9506,-807.015,0,0
133654,97.5932,-796.689,0,0
134956,100.24,-786.138,0,0
136258,102.95,-775.477,0,0
137559,107.656,-765.621,0,0
138860.775,109.816,-759.355,0,0
140162.4,109.49,-750.745,0,0
141464.025,109.293,-740.445,0,0
142765.65,109.985,-729.499,0,0
144067.275,111.519,-718.08,0,0
145368.9,114.036,-707.075,0,0
146670.525,116.763,-697.082,0,0
147972.15,119.024,-688.104,0,0
149273.775,120.689,-676.977,0,0
150575.4,122.798,-668.882,0,0
151877.025,121.343,-657.272,0,0
153178.65,121.618,-642.033,0,0
154480,125.987,-625.435,0,0
155782,133.604,-608.898,0,0
157084,145.906,-594.5,0,0
158385,158.457,-585.316,0,0
159687,168.226,-574.336,0,0
160988,186.754,-563.988,0,0
162290,206.011,-564.273,0,0
163592,217.214,-567.383,0,0
164893,228.845,-569.599,0,0
166195,241.15,-576.451,0,0
167497,246.378,-587.751,0,0
168798,244.15,-599.386,0,0
170100,234.431,-605.172,0,0
171401.375,225.953,-601.995,0,0
172703.0,222.778,-596.597,0,0
174004.625,219.1,-592.304,0,0
175306.25,217.764,-586.229,0,0
176607.875,217.923,-582.852,0,0
177909.5,216.998,-579.753,0,0
179211.125,212.837,-578.215,0,0
180512.75,205.78,-574.189,0,0
181814.375,198.894,-565.432,0,0
183116.0,192.893,-554.728,0,0
184417.625,187.815,-541.231,0,0
185719.25,186.671,-524.58,0,0
187021,188.252,-509.654,0,0
188322,191.573,-494.721,0,0
189624,195.533,-480.13,0,0
190926,200.211,-464.986,0,0
192227,205.829,-448.437,0,0
193529,214.728,-431.291,0,0
194831,225.21,-414.352,0,0
196132,238.626,-396.778,0,0
197434,254.829,-378.886,0,0
198735,275.564,-362.419,0,0
200037,297.471,-347.425,0,0
201339,324.891,-331.492,0,0
202640.35,360.943,-317.367,0,0
203941.975,404.537,-312.427,0,0
205243.6,456.224,-322.438,0,0
206545.225,499.278,-351.885,0,0
207846.85,526.961,-390.813,0,0
209148.475,539.555,-430.54,0,0
210450.1,536.802,-466.147,0,0
211751.725,526.35,-483.093,0,0
213053.35,524.591,-485.992,0,0
214354.975,537.553,-493.227,0,0
215656.6,550.414,-506.724,0,0
216958.225,561.168,-522.978,0,0
218259.85,573.775,-538.863,0,0
219561,589.854,-556.495,0,0
220863,610.034,-583.439,0,0
222165,628.201,-623.398,0,0
223466,631.728,-674.42,0,0
224768,620.639,-724.032,0,0
226070,598.45,-770.891,0,0
227371,566.611,-812.092,0,0
228673,522.716,-844.914,0,0
229974,475.093,-861.535,0,0
231276,431.056,-864.645,0,0
232578,395.339,-860.275,0,0
233879,366.974,-854.269,0,0
235180.95,342.712,-849.537,0,0
236482.575,317.534,-844.769,0,0
237784.2,293.622,-837.132,0,0
239085.825,271.674,-827.241,0,0
240387.45,252.452,-815.463,0,0
241689.075,236.031,-803.625,0,0
242990.7,221.827,-791.204,0,0
244292.325,209.646,-779.808,0,0
245593.95,197.811,-768.954,0,0
246895.575,186.17,-757.446,0,0
248197.2,176.103,-744.526,0,0
249498.825,168.048,-731.883,0,0
250800,160.992,-719.544,0,0
252102,154.846,-707.334,0,0
253404,149.383,-694.887,0,0
254705,145.547,-681.993,0,0
256007,143.693,-669.785,0,0
257309,142.329,-658.219,0,0
258610,141.818,-646.663,0,0
259912,143.681,-634.861,0,0
261213,148.044,-625.105,0,0
262515,153.253,-617.812,0,0
263817,158.812,-612.8,0,0
265118,164.733,-609.853,0,0
266420,171.196,-610.967,0,0
267721.55,173.093,-617.276,0,0
269023.175,167.999,-623.301,0,0
270324.8,157.729,-624.255,0,0
271626.425,147.876,-618.704,0,0
272928.05,141.958,-609.653,0,0
274229.675,140.096,-600.615,0,0
275531.3,140.359,-593.256,0,0
276832.925,141.341,-587.078,0,0
278134.55,143.543,-582.376,0,0
279436.175,145.53,-580.057,0,0
280737.8,145.894,-578.966,0,0
282039.425,144.638,-578.506,0,0
283341,141.152,-576.818,0,0
284643,137.881,-573.008,0,0
285944,135.534,-569.297,0,0
287246,131.218,-564.826,0,0
288548,128.564,-556.159,0,0
289849,130.946,-548.259,0,0
291151,134.086,-544.25,0,0
292452,135.632,-541.805,0,0
293754,134.589,-538.848,0,0
295056,133.505,-532.64,0,0
296357,136.369,-525.068,0,0
297659,141.486,-520.511,0,0
298960.525,146.372,-516.956,0,0
300262.15,151.708,-514.601,0,0
301563.775,158.031,-512.91,0,0
302865.4,165.336,-514.597,0,0
304167.025,170.332,-518.231,0,0
305468.65,174.482,-522.588,0,0
306770.275,177.769,-528.319,0,0
308071.9,178.598,-535.933,0,0
309373.525,176.458,-542.264,0,0
310675.15,174.494,-548.164,0,0
311976.775,170.566,-555.215,0,0
313278.4,163.248,-561.257,0,0
314580,154.843,-563.874,0,0
315882,147.306,-565.265,0,0
317183,138.972,-565.519,0,0
318485,131.006,-564.119,0,0
319787,123.524,-561.619,0,0
321088,116.405,-557.892,0,0
322390,110.385,-553.281,0,0
323691,105.736,-547.575,0,0
324993,102.763,-542.183,0,0
326295,101.071,-537.463,0,0
327596,99.7492,-533.788,0,0
328898,98.5333,-531.178,0,0
330200,96.8524,-529.376,0,0
331501.125,94.3678,-527.827,0,0
332802.75,91.1079,-526.08,0,0
334104.375,87.4978,-523.857,0,0
335406.0,83.6925,-520.924,0,0
336707.625,80.1105,-517.405,0,0
338009.25,76.8677,-513.599,0,0
339310.875,73.8557,-509.47,0,0
340612.5,71.3635,-505.242,0,0
341914.125,69.1908,-501.181,0,0
343215.75,67.0142,-497.24,0,0
344517.375,64.8267,-493.141,0,0
345819.0,62.8156,-488.807,0,0
347121,60.9204,-484.289,0,0
348422,59.5144,-479.515,0,0
349724,58.6227,-474.82,0,0
351025,57.9213,-470.397,0,0
352327,57.4502,-465.987,0,0
353629,57.2041,-461.871,0,0
354930,56.9332,-457.836,0,0
356232,56.8972,-453.858,0,0
357534,57.0048,-450.03,0,0
358835,57.0344,-446.341,0,0
360137,57.2436,-442.608,0,0
361438,57.6389,-439.054,0,0
362740.1,57.9557,-435.678,0,0
364041.725,58.3327,-432.094,0,0
365343.35,58.8849,-428.694,0,0
366644.975,59.4219,-425.512,0,0
367946.6,59.5803,-421.958,0,0
369248.225,60.2494,-417.521,0,0
370549.85,62.2361,-413.097,0,0
371851.475,65.3132,-409.348,0,0
373153.1,68.8711,-406.913,0,0
374454.725,72.3229,-405.833,0,0
375756.35,74.8566,-405.571,0,0
377057.975,76.7321,-405.368,0,0
378359.6,78.5271,-405.361,0,0
379661,79.6908,-405.714,0,0
380963,80.9589,-405.711,0,0
382264,82.4128,-407.155,0,0
383566,82.1355,-409.392,0,0
384868,80.2455,-411.059,0,0
386169,77.4866,-411.744,0,0
387471,74.3044,-411.039,0,0
388773,71.6469,-409.237,0,0
390074,69.9501,-407.06,0,0
391376,68.7388,-405.197,0,0
392677,67.3815,-403.821,0,0
393979,65.3313,-402.349,0,0
395280.7,62.9401,-400.076,0,0
396582.325,60.8817,-397.056,0,0
397883.95,59.3654,-393.658,0,0
399185.575,58.2622,-390.156,0,0
400006.6,57.744,-387.847,0,0

File: sample_2.csv
Frequency (Hz),Impedance (ohms),Phase (Radians),Temperature (C),Humidity (%)
10000.0,229.79,-11428.4,0,0
11301.625,204.076,-10121.8,0,0
12603.25,183.923,-9087.03,0,0
13904.875,186.487,-8240.53,0,0
15206.5,164.076,-7550.55,0,0
16508.125,143.378,-6956.51,0,0
17809.75,132.766,-6448.23,0,0
19111.375,128.52,-6009.39,0,0
20413.0,118.418,-5626.14,0,0
21714.625,127.283,-5297.06,0,0
23016.25,112.341,-5001.03,0,0
24317.875,102.796,-4735.09,0,0
25619.5,97.2719,-4491.4,0,0
26921.1,94.9666,-4273.23,0,0
28222.7,89.973,-4074.2,0,0
29524.4,93.244,-3890.21,0,0
30826,87.4973,-3736,0,0
32127.6,81.735,-3582.01,0,0
33429.2,79.8677,-3443.65,0,0
34730.9,75.4533,-3312.74,0,0
36032.5,73.0034,-3191.68,0,0
37334.1,70.8179,-3078.08,0,0
38635.7,68.6972,-2972.86,0,0
39937.4,66.9112,-2873.93,0,0
41239,65.2867,-2781.25,0,0
42540.6,64.3077,-2694.74,0,0
43842.225,62.9077,-2612.58,0,0
45143.85,61.8394,-2535.04,0,0
46445.475,60.8441,-2462.63,0,0
47747.1,60.2365,-2393.33,0,0
49048.725,60.4925,-2329.01,0,0
50350.35,57.7344,-2267.31,0,0
51651.975,56.564,-2208.02,0,0
52953.6,54.9799,-2150.79,0,0
54255.225,54.2234,-2096.13,0,0
55556.85,53.8271,-2044.16,0,0
56858.475,53.7467,-1994.3,0,0
58160.1,54.0064,-1946.99,0,0
59461.7,54.5092,-1901.05,0,0
60763.3,56.421,-1858.66,0,0
62065,58.7652,-1820.3,0,0
63366.6,55.3708,-1783.57,0,0
64668.2,52.8924,-1745.32,0,0
65969.8,50.7145,-1706.22,0,0
67271.5,51.2969,-1668.92,0,0
68573.1,53.3209,-1634.97,0,0
69874.7,55.82,-1604.76,0,0
71176.3,52.3403,-1576.52,0,0
72478,47.7203,-1545.94,0,0
73779.6,45.1548,-1513.09,0,0
75081.2,45.1902,-1480.75,0,0
76382.825,46.9315,-1450.33,0,0
77684.45,49.7749,-1422.14,0,0
78986.075,52.9594,-1397.94,0,0
80287.7,51.7518,-1376.37,0,0
81589.325,49.1709,-1351.31,0,0
82890.95,48.0562,-1325.6,0,0
84192.575,48.7856,-1300.83,0,0
85494.2,49.5128,-1277.33,0,0
86795.825,50.4906,-1255.26,0,0
88097.45,51.0514,-1234.07,0,0
89399.075,51.3461,-1212.5,0,0
90700.7,51.5066,-1192.43,0,0
92002.3,52.9656,-1171.2,0,0
93303.9,55.3469,-1152.28,0,0
94605.6,55.235,-1135.76,0,0
95907.2,54.4036,-1116.33,0,0
97208.8,57.9759,-1099.3,0,0
98510.4,57.5946,-1085.64,0,0
99812.1,53.284,-1070.81,0,0
101114,50.5359,-1053.22,0,0
102415,46.8837,-1033.06,0,0
103717,46.0531,-1011.91,0,0
105019,49.3131,-991.673,0,0
106320.175,54.0311,-974.647,0,0
107621.8,57.641,-962.792,0,0
108923.425,55.9301,-950.63,0,0
110225.05,52.7323,-935.294,0,0
111526.675,51.5997,-917.451,0,0
112828.3,52.0383,-899.881,0,0
114129.925,53.7651,-882.766,0,0
115431.55,56.6019,-866.259,0,0
116733.175,60.1342,-850.978,0,0
118034.8,64.194,-836.984,0,0
119336.425,67.7431,-825.105,0,0
120638.05,69.8407,-814.532,0,0
121939.675,69.3345,-803.375,0,0
123241,68.4837,-790.39,0,0
124543,67.969,-776.618,0,0
125845,68.1957,-761.67,0,0
127146,69.6564,-746.578,0,0
128448,72.7079,-732.245,0,0
129749,75.4076,-719.318,0,0
131051,77.9746,-706.382,0,0
132353,79.3345,-694.207,0,0
133654,80.5752,-680.384,0,0
134956,81.92,-666.275,0,0
136258,84.274,-651.181,0,0
137559,87.2678,-636.102,0,0
138860.775,90.5196,-621.112,0,0
140162.4,93.667,-604.878,0,0
141464.025,99.4269,-585.936,0,0
142765.65,109.054,-568.549,0,0
144067.275,119.419,-553.089,0,0
145368.9,130.899,-537.753,0,0
146670.525,144.425,-523.549,0,0
147972.15,160.346,-509.932,0,0
149273.775,181.179,-497.718,0,0
150575.4,208.168,-495.025,0,0
151877.025,229.312,-506.475,0,0
153178.65,236.812,-521.381,0,0
154480,234.491,-531.831,0,0
155782,230.137,-534.066,0,0
157084,224.391,-533.163,0,0
158385,220.709,-525.364,0,0
159687,222.152,-518.665,0,0
160988,223.094,-512.71,0,0
162290,230.849,-508.865,0,0
163592,226.58,-515.641,0,0
164893,213.249,-512.453,0,0
166195,200.141,-498.536,0,0
167497,193.141,-479.215,0,0
168798,190.986,-456.869,0,0
170100,193.009,-434.452,0,0
171401.375,197.694,-412.005,0,0
172703.0,206.871,-388.17,0,0
174004.625,219.35,-364.141,0,0
175306.25,239.034,-339.778,0,0
176607.875,265.32,-323,0,0
177909.5,293.03,-312.425,0,0
179211.125,315.445,-313.72,0,0
180512.75,324.028,-312.852,0,0
181814.375,329.881,-296.868,0,0
183116.0,346.52,-276.484,0,0
184417.625,371.361,-253.032,0,0
185719.25,406.654,-234.658,0,0
187021,444.619,-223.331,0,0
188322,487.363,-215.579,0,0
189624,528.282,-214.653,0,0
190926,574.239,-210.319,0,0
192227,634.364,-210.394,0,0
193529,707.707,-229.089,0,0
194831,775.488,-278.152,0,0
196132,825.167,-340.507,0,0
197434,863.028,-407.263,0,0
198735,892.842,-488.028,0,0
200037,897.227,-571.759,0,0
201339,886.961,-659.83,0,0
202640.35,849.432,-737.052,0,0
203941.975,797.14,-796.265,0,0
205243.6,743.875,-841.23,0,0
206545.225,680.34,-866.058,0,0
207846.85,629.398,-872.5,0,0
209148.475,593.84,-876.712,0,0
210450.1,555.728,-889.179,0,0
211751.725,510.089,-891.579,0,0
213053.35,471.781,-880.562,0,0
214354.975,441.83,-866.83,0,0
215656.6,417.82,-852.684,0,0
216958.225,398.8,-837.121,0,0
218259.85,385.053,-822.51,0,0
219561,375.244,-808.715,0,0
220863,368.944,-797.979,0,0
222165,365.903,-788.737,0,0
223466,365.218,-785.574,0,0
224768,361.675,-785.221,0,0
226070,356.542,-784.52,0,0
227371,354.51,-785.289,0,0
228673,351.963,-791.696,0,0
229974,343.158,-802.263,0,0
231276,328.096,-810.217,0,0
232578,311.001,-814.426,0,0
233879,292.56,-815.251,0,0
235180.95,274.559,-813.069,0,0
236482.575,257.364,-809.099,0,0
237784.2,240.282,-803.089,0,0
239085.825,224.713,-794.644,0,0
240387.45,211.011,-784.754,0,0
241689.075,199.54,-774.608,0,0
242990.7,189.725,-764.114,0,0
244292.325,181.292,-755.241,0,0
245593.95,172.606,-747.503,0,0
246895.575,161.48,-740.369,0,0
248197.2,148.874,-729.317,0,0
249498.825,138.367,-715.341,0,0
250800,129.996,-699.715,0,0
252102,124.944,-682.619,0,0
253404,122.979,-666.621,0,0
254705,122.365,-651.315,0,0
256007,123.793,-635.703,0,0
257309,128.609,-621.637,0,0
258610,134.691,-610.024,0,0
259912,141.803,-599.719,0,0
261213,150.604,-591.968,0,0
262515,159.6,-587.225,0,0
263817,168.002,-585.376,0,0
265118,174.535,-585.935,0,0
266420,178.37,-587.466,0,0
267721.55,180.456,-588.583,0,0
269023.175,180.679,-588.941,0,0
270324.8,180.324,-586.266,0,0
271626.425,183.215,-581.666,0,0
272928.05,189.67,-578.006,0,0
274229.675,200.227,-577.867,0,0
275531.3,212.805,-586.26,0,0
276832.925,217.037,-604.179,0,0
278134.55,209.886,-619.805,0,0
279436.175,198.511,-629.87,0,0
280737.8,185.326,-635.407,0,0
282039.425,172.486,-637.735,0,0
283341,157.535,-636.721,0,0
284643,146.481,-631.209,0,0
285944,134.026,-627.081,0,0
287246,120.538,-615.645,0,0
288548,113.429,-598.527,0,0
289849,115.896,-579.603,0,0
291151,127.924,-567.055,0,0
292452,143.264,-566.86,0,0
293754,148.632,-576.823,0,0
295056,144.796,-580.958,0,0
296357,146.274,-580.812,0,0
297659,146.44,-590.178,0,0
298960.525,137.212,-596.081,0,0
300262.15,127.507,-596.727,0,0
301563.775,119.263,-593.308,0,0
302865.4,115.28,-590.01,0,0
304167.025,110.926,-589.888,0,0
305468.65,103.591,-589.691,0,0
306770.275,94.9947,-586.793,0,0
308071.9,87.2085,-581.57,0,0
309373.525,81.1038,-575.147,0,0
310675.15,76.3269,-568.817,0,0
311976.775,72.1124,-562.443,0,0
313278.4,68.6274,-555.746,0,0
314580,66.0147,-549.342,0,0
315882,63.707,-543.071,0,0
317183,61.8998,-536.788,0,0
318485,60.8376,-530.856,0,0
319787,59.9589,-525.514,0,0
321088,58.9324,-520.318,0,0
322390,57.8895,-514.954,0,0
323691,56.8463,-509.269,0,0
324993,56.7238,-502.705,0,0
326295,58.82,-496.303,0,0
327596,62.1428,-492.486,0,0
328898,64.1901,-490.358,0,0
330200,65.5915,-488.65,0,0
331501.125,66.2948,-487.792,0,0
332802.75,65.4551,-487.371,0,0
334104.375,63.0657,-486.035,0,0
335406.0,60.649,-483.205,0,0
336707.625,58.6067,-479.757,0,0
338009.25,57.0024,-475.765,0,0
339310.875,55.7651,-471.68,0,0
340612.5,54.9171,-467.239,0,0
341914.125,54.6873,-462.878,0,0
343215.75,54.725,-458.574,0,0
344517.375,55.2031,-454.275,0,0
345819.0,56.0959,-450.247,0,0
347121,57.3756,-446.633,0,0
348422,58.7884,-443.363,0,0
349724,60.3919,-440.482,0,0
351025,62.0668,-438.101,0,0
352327,63.4741,-436.259,0,0
353629,64.3951,-434.459,0,0
354930,65.4482,-432.533,0,0
356232,66.5918,-430.688,0,0
357534,68.0706,-429.08,0,0
358835,69.7011,-428.158,0,0
360137,70.9398,-428.147,0,0
361438,71.3737,-428.427,0,0
362740.1,70.9037,-428.649,0,0
364041.725,69.955,-428.462,0,0
365343.35,68.6992,-427.913,0,0
366644.975,67.2138,-426.73,0,0
367946.6,66.2364,-424.856,0,0
369248.225,66.1918,-423.447,0,0
370549.85,65.5939,-423.015,0,0
371851.475,64.2085,-422.126,0,0
373153.1,62.8758,-420.787,0,0
374454.725,61.7443,-419.631,0,0
375756.35,60.2641,-418.448,0,0
377057.975,58.6158,-416.88,0,0
378359.6,57.2162,-415.561,0,0
379661,54.5071,-414.25,0,0
380963,52.0963,-410.479,0,0
382264,52.224,-407.604,0,0
383566,51.2617,-406.195,0,0
384868,49.3456,-404.286,0,0
386169,47.3676,-401.537,0,0
387471,45.8537,-398.108,0,0
388773,44.9184,-394.687,0,0
390074,44.6176,-391.183,0,0
391376,44.8301,-388.421,0,0
392677,44.4805,-386.621,0,0
393979,42.9279,-384.348,0,0
395280.7,41.4276,-380.949,0,0
396582.325,40.6985,-376.967,0,0
397883.95,40.6705,-372.95,0,0
399185.575,41.1668,-369.302,0,0
400006.6,41.543,-367.163,0,0