Folder: ML_Dmg_Mehdi_Dataset/Accelerated corrosion test data/2025-10-02_06-00-03 (part 3)

File: sample_6.csv
Frequency (Hz),Impedance (ohms),Phase (Radians),Temperature (C),Humidity (%)
10000.0,4279.98,-6477.12,0,0
11301.625,3651.47,-6114.75,0,0
12603.25,3147.78,-5762.81,0,0
13904.875,2741.3,-5443.1,0,0
15206.5,2406.18,-5140.15,0,0
16508.125,2129.4,-4862.17,0,0
17809.75,1897.38,-4607.08,0,0
19111.375,1704.11,-4372.15,0,0
20413.0,1537.71,-4159.26,0,0
21714.625,1394.04,-3961.99,0,0
23016.25,1274.59,-3774.25,0,0
24317.875,1168.2,-3617.41,0,0
25619.5,1073.17,-3462.68,0,0
26921.1,990.6,-3318.76,0,0
28222.7,919.274,-3187.85,0,0
29524.4,854.256,-3061.67,0,0
30826,799.053,-2946.77,0,0
32127.6,749.547,-2836.98,0,0
33429.2,712.016,-2739.18,0,0
34730.9,670.342,-2653.36,0,0
36032.5,631.217,-2570.82,0,0
37334.1,591.746,-2488.81,0,0
38635.7,557.807,-2408.59,0,0
39937.4,529.346,-2333.1,0,0
41239,503.682,-2262.46,0,0
42540.6,480.633,-2196.49,0,0
43842.225,459.276,-2130.16,0,0
45143.85,442.14,-2066.9,0,0
46445.475,431.725,-2011.17,0,0
47747.1,420.669,-1960.08,0,0
49048.725,414.303,-1917.15,0,0
50350.35,395.716,-1885.5,0,0
51651.975,371.432,-1842.2,0,0
52953.6,354.02,-1797.52,0,0
54255.225,336.517,-1755.86,0,0
55556.85,320.197,-1714.93,0,0
56858.475,306.452,-1667.85,0,0
58160.1,302.503,-1629.11,0,0
59461.7,293.918,-1597.29,0,0
60763.3,281.15,-1565.28,0,0
62065,266.579,-1529.57,0,0
63366.6,262.748,-1490.6,0,0
64668.2,256.217,-1466.08,0,0
65969.8,247.09,-1435.98,0,0
67271.5,235.436,-1407.02,0,0
68573.1,225.459,-1374.62,0,0
69874.7,218.411,-1342.13,0,0
71176.3,214.436,-1310.03,0,0
72478,212.914,-1280.28,0,0
73779.6,213.352,-1253.79,0,0
75081.2,212.303,-1229.96,0,0
76382.825,210.835,-1207.44,0,0
77684.45,209.126,-1184.34,0,0
78986.075,209.294,-1162.89,0,0
80287.7,209.345,-1144.31,0,0
81589.325,207.542,-1127.18,0,0
82890.95,204.296,-1110.29,0,0
84192.575,199.711,-1092.65,0,0
85494.2,195.997,-1073.26,0,0
86795.825,193.937,-1054.32,0,0
88097.45,192.023,-1036.85,0,0
89399.075,190.23,-1019.16,0,0
90700.7,189.608,-1002.41,0,0
92002.3,186.99,-987.035,0,0
93303.9,185.973,-970.035,0,0
94605.6,185.849,-952.467,0,0
95907.2,187.708,-939.152,0,0
97208.8,186.963,-927.687,0,0
98510.4,184.29,-911.099,0,0
99812.1,191.564,-896.98,0,0
101114,191.42,-893.6,0,0
102415,187.169,-882.596,0,0
103717,184.905,-876.891,0,0
105019,173.046,-870.249,0,0
106320.175,159.423,-851.065,0,0
107621.8,155.865,-827.024,0,0
108923.425,159.26,-807.823,0,0
110225.05,161.813,-792.291,0,0
111526.675,164.732,-776.885,0,0
112828.3,169.56,-763.753,0,0
114129.925,174.945,-752.781,0,0
115431.55,178.715,-742.952,0,0
116733.175,183.401,-736.442,0,0
118034.8,181.948,-731.075,0,0
119336.425,181.496,-718.907,0,0
120638.05,189.558,-707.222,0,0
121939.675,194.392,-710.77,0,0
123241,188.452,-707.714,0,0
124543,183.899,-701.886,0,0
125845,178.561,-693.868,0,0
127146,173.508,-684.237,0,0
128448,171.245,-671.02,0,0
129749,173.684,-661.567,0,0
131051,173.887,-655.459,0,0
132353,172.054,-649.913,0,0
133654,167.929,-644.411,0,0
134956,161.996,-636.304,0,0
136258,156.012,-626.029,0,0
137559,151.107,-613.73,0,0
138860.775,147.829,-600.351,0,0
140162.4,146.293,-586.704,0,0
141464.025,146.202,-573.133,0,0
142765.65,146.606,-560.334,0,0
144067.275,148.569,-546.955,0,0
145368.9,152.166,-536.21,0,0
146670.525,153.179,-527.65,0,0
147972.15,152.461,-517.274,0,0
149273.775,151.906,-504.756,0,0
150575.4,152.367,-490.269,0,0
151877.025,155.619,-473.532,0,0
153178.65,166.281,-459.572,0,0
154480,172.925,-452.73,0,0
155782,178.184,-441.734,0,0
157084,188.344,-433.468,0,0
158385,193.828,-430.501,0,0
159687,196.287,-425.238,0,0
160988,198.24,-418.843,0,0
162290,199.829,-411.892,0,0
163592,201.045,-403.741,0,0
164893,200.49,-394.275,0,0
166195,202.355,-381.567,0,0
167497,205.985,-369.97,0,0
168798,209.999,-357.953,0,0
170100,214.819,-346.325,0,0
171401.375,219.318,-334.352,0,0
172703.0,224.093,-321.604,0,0
174004.625,229.074,-308.125,0,0
175306.25,234.262,-292.473,0,0
176607.875,241.556,-274.554,0,0
177909.5,252.046,-255.168,0,0
179211.125,266.298,-234.734,0,0
180512.75,286.091,-215.827,0,0
181814.375,308.661,-200.726,0,0
183116.0,332.518,-189.908,0,0
184417.625,356.036,-180.833,0,0
185719.25,378.782,-177.183,0,0
187021,393.798,-174.256,0,0
188322,402.675,-161.464,0,0
189624,417.763,-135.103,0,0
190926,449.327,-100.042,0,0
192227,500.715,-70.6033,0,0
193529,563.054,-51.1011,0,0
194831,640.178,-42.93,0,0
196132,725.769,-56.9538,0,0
197434,810.12,-93.3259,0,0
198735,888.138,-146.401,0,0
200037,960.967,-220.328,0,0
201339,1020.26,-313.62,0,0
202640.35,1058.87,-433.604,0,0
203941.975,1050.71,-561.391,0,0
205243.6,1010.09,-670.695,0,0
206545.225,947.677,-757.985,0,0
207846.85,876.666,-818.382,0,0
209148.475,808.627,-857.085,0,0
210450.1,750.039,-884.016,0,0
211751.725,696.152,-911.887,0,0
213053.35,630.562,-934.976,0,0
214354.975,563.503,-939.425,0,0
215656.6,504.407,-930.328,0,0
216958.225,455.396,-914.252,0,0
218259.85,414.408,-895.126,0,0
219561,380.271,-874.261,0,0
220863,351.794,-853.054,0,0
222165,327.505,-831.28,0,0
223466,307.25,-808.657,0,0
224768,292.016,-785.524,0,0
226070,282.816,-763.085,0,0
227371,279.903,-744.558,0,0
228673,279.461,-734.13,0,0
229974,274.257,-730.031,0,0
231276,263.037,-724.856,0,0
232578,249.91,-715.303,0,0
233879,238.376,-702.047,0,0
235180.95,230.197,-687.135,0,0
236482.575,224.707,-672.181,0,0
237784.2,221.425,-657.794,0,0
239085.825,219.985,-644.133,0,0
240387.45,220.089,-631.6,0,0
241689.075,221.331,-619.77,0,0
242990.7,223.609,-608.603,0,0
244292.325,227.199,-598.028,0,0
245593.95,232.146,-588.093,0,0
246895.575,239.152,-578.559,0,0
248197.2,249.732,-570.802,0,0
249498.825,261.938,-567.526,0,0
250800,273.031,-567.719,0,0
252102,285.596,-568.18,0,0
253404,301.962,-574.511,0,0
254705,316.589,-590.631,0,0
256007,322.509,-614.048,0,0
257309,317.999,-637.955,0,0
258610,305.76,-658.296,0,0
259912,288.625,-673.447,0,0
261213,268.829,-682.784,0,0
262515,248.969,-686.524,0,0
263817,230.893,-686.41,0,0
265118,214.43,-683.881,0,0
266420,199.53,-679.595,0,0
267721.55,186.308,-673.967,0,0
269023.175,174.652,-667.615,0,0
270324.8,164.32,-660.911,0,0
271626.425,154.833,-654.014,0,0
272928.05,146.21,-646.851,0,0
274229.675,138.326,-639.401,0,0
275531.3,131.273,-631.68,0,0
276832.925,124.919,-623.824,0,0
278134.55,119.32,-615.922,0,0
279436.175,114.428,-607.711,0,0
280737.8,110.796,-599.405,0,0
282039.425,108.427,-592.096,0,0
283341,105.912,-585.654,0,0
284643,103.553,-579.245,0,0
285944,101.801,-573.063,0,0
287246,100.4,-567.857,0,0
288548,98.295,-562.94,0,0
289849,96.404,-557.72,0,0
291151,94.933,-552.81,0,0
292452,93.5951,-548.304,0,0
293754,92.2156,-544.445,0,0
295056,90.0873,-541.065,0,0
296357,87.1384,-537.166,0,0
297659,83.9554,-532.135,0,0
298960.525,81.9196,-525.975,0,0
300262.15,81.5211,-520.429,0,0
301563.775,81.1622,-516.058,0,0
302865.4,80.5601,-512.23,0,0
304167.025,79.5667,-508.273,0,0
305468.65,78.8387,-503.882,0,0
306770.275,79.211,-499.862,0,0
308071.9,79.3897,-497.386,0,0
309373.525,78.5445,-495.035,0,0
310675.15,77.3824,-492.554,0,0
311976.775,76.0674,-489.983,0,0
313278.4,74.373,-487.256,0,0
314580,72.7899,-484.297,0,0
315882,71.3108,-481.139,0,0
317183,69.8556,-478.122,0,0
318485,68.3365,-475.078,0,0
319787,66.6793,-471.989,0,0
321088,64.9656,-468.664,0,0
322390,63.5575,-464.998,0,0
323691,62.426,-461.56,0,0
324993,61.3427,-458.183,0,0
326295,60.1876,-454.812,0,0
327596,59.1219,-451.342,0,0
328898,58.1625,-447.917,0,0
330200,57.2195,-444.52,0,0
331501.125,56.4495,-441.098,0,0
332802.75,55.5963,-437.683,0,0
334104.375,54.9405,-434.187,0,0
335406.0,54.4746,-430.791,0,0
336707.625,54.0871,-427.585,0,0
338009.25,53.7023,-424.396,0,0
339310.875,53.2853,-421.176,0,0
340612.5,52.9934,-418.048,0,0
341914.125,52.8818,-414.87,0,0
343215.75,53.0919,-411.868,0,0
344517.375,53.2365,-409.651,0,0
345819.0,52.5595,-407.357,0,0
347121,51.7999,-404.502,0,0
348422,51.3408,-401.494,0,0
349724,51.1042,-398.553,0,0
351025,51.0033,-395.662,0,0
352327,50.9997,-392.888,0,0
353629,51.0338,-390.195,0,0
354930,50.9849,-387.736,0,0
356232,50.8183,-385.248,0,0
357534,50.7291,-382.57,0,0
358835,50.8899,-380.048,0,0
360137,51.0332,-377.807,0,0
361438,50.9465,-375.684,0,0
362740.1,50.6612,-373.512,0,0
364041.725,50.3375,-371.203,0,0
365343.35,50.0684,-368.807,0,0
366644.975,49.9176,-366.299,0,0
367946.6,49.7708,-363.884,0,0
369248.225,49.7083,-361.444,0,0
370549.85,49.769,-358.975,0,0
371851.475,49.97,-356.62,0,0
373153.1,50.3535,-354.468,0,0
374454.725,50.5442,-352.822,0,0
375756.35,50.1853,-351.201,0,0
377057.975,49.6288,-349.241,0,0
378359.6,49.1704,-347.118,0,0
379661,48.5646,-344.975,0,0
380963,47.9119,-342.476,0,0
382264,47.5117,-339.582,0,0
383566,47.8586,-336.843,0,0
384868,47.9655,-334.936,0,0
386169,47.5827,-332.748,0,0
387471,47.2223,-330.373,0,0
388773,46.9029,-327.811,0,0
390074,46.7338,-325.168,0,0
391376,46.6186,-322.531,0,0
392677,46.6149,-319.888,0,0
393979,46.6108,-317.212,0,0
395280.7,46.7115,-314.534,0,0
396582.325,46.8291,-311.846,0,0
397883.95,47.0565,-309.154,0,0
399185.575,47.332,-306.436,0,0
400006.6,47.5088,-304.758,0,0

File: sample_7.csv
Frequency (Hz),Impedance (ohms),Phase (Radians),Temperature (C),Humidity (%)
10000.0,277.699,-12084.4,0,0
11301.625,249.083,-10690.4,0,0
12603.25,266.632,-9645.93,0,0
13904.875,210.747,-8747.73,0,0
15206.5,201.399,-8006.73,0,0
16508.125,174.084,-7369.26,0,0
17809.75,170.546,-6813.87,0,0
19111.375,183.683,-6378.67,0,0
20413.0,175.28,-5977.58,0,0
21714.625,156.984,-5634.89,0,0
23016.25,132.753,-5314.95,0,0
24317.875,124.528,-5022.16,0,0
25619.5,120.752,-4758.32,0,0
26921.1,124.984,-4513.58,0,0
28222.7,182.061,-4306.57,0,0
29524.4,138.709,-4167.16,0,0
30826,137.617,-3984.03,0,0
32127.6,119.752,-3839.5,0,0
33429.2,103.683,-3688.44,0,0
34730.9,94.6122,-3544.02,0,0
36032.5,90.1994,-3410.3,0,0
37334.1,87.874,-3286.67,0,0
38635.7,88.1881,-3169.94,0,0
39937.4,99.0409,-3069.77,0,0
41239,88.7463,-2982.49,0,0
42540.6,81.5137,-2886.6,0,0
43842.225,80.7802,-2797.63,0,0
45143.85,81.7626,-2720.62,0,0
46445.475,79.1887,-2647.26,0,0
47747.1,72.1529,-2571.56,0,0
49048.725,69.8136,-2501.42,0,0
50350.35,67.778,-2434.32,0,0
51651.975,66.0932,-2370.7,0,0
52953.6,65.2526,-2310.17,0,0
54255.225,63.8936,-2253.41,0,0
55556.85,62.686,-2198.63,0,0
56858.475,61.9047,-2146.21,0,0
58160.1,61.1058,-2095.79,0,0
59461.7,61.3023,-2048.68,0,0
60763.3,60.8316,-2004.73,0,0
62065,58.8745,-1961.37,0,0
63366.6,57.633,-1918.85,0,0
64668.2,56.6402,-1878.18,0,0
65969.8,56.6122,-1839.74,0,0
67271.5,55.1625,-1802.9,0,0
68573.1,53.8531,-1766.08,0,0
69874.7,53.3413,-1730.89,0,0
71176.3,53.0466,-1697.24,0,0
72478,52.0286,-1664.96,0,0
73779.6,51.1213,-1633.12,0,0
75081.2,50.6238,-1602.35,0,0
76382.825,50.0758,-1572.6,0,0
77684.45,49.771,-1543.72,0,0
78986.075,49.5589,-1515.74,0,0
80287.7,49.3573,-1488.67,0,0
81589.325,49.0788,-1462.34,0,0
82890.95,49.0161,-1436.72,0,0
84192.575,48.8731,-1411.69,0,0
85494.2,49.1674,-1387.54,0,0
86795.825,49.1521,-1364.18,0,0
88097.45,49.3111,-1341.13,0,0
89399.075,49.3307,-1319.13,0,0
90700.7,49.5944,-1296.93,0,0
92002.3,50.1664,-1275.72,0,0
93303.9,50.1756,-1254.79,0,0
94605.6,52.7782,-1234.71,0,0
95907.2,52.055,-1217.24,0,0
97208.8,51.3942,-1197.23,0,0
98510.4,52.3667,-1177.82,0,0
99812.1,52.2759,-1159.46,0,0
101114,53.1975,-1140.48,0,0
102415,54.9125,-1122.55,0,0
103717,57.6456,-1105.29,0,0
105019,59.017,-1090.34,0,0
106320.175,58.5718,-1074.82,0,0
107621.8,59.4231,-1058.18,0,0
108923.425,60.4351,-1042.65,0,0
110225.05,60.6767,-1026.21,0,0
111526.675,63.4166,-1008.99,0,0
112828.3,67.4908,-992.764,0,0
114129.925,72.4599,-979.267,0,0
115431.55,77.4561,-966.279,0,0
116733.175,85.2096,-955.644,0,0
118034.8,89.2537,-950.921,0,0
119336.425,91.971,-946.264,0,0
120638.05,87.1937,-945.941,0,0
121939.675,76.7795,-936.376,0,0
123241,70.2008,-923.318,0,0
124543,65.7875,-908.812,0,0
125845,62.1978,-895.633,0,0
127146,58.9392,-881.135,0,0
128448,57.0129,-866.111,0,0
129749,55.705,-851.424,0,0
131051,54.9439,-836.91,0,0
132353,54.0464,-821.807,0,0
133654,54.6826,-806.3,0,0
134956,57.5122,-791.16,0,0
136258,62.1836,-778.924,0,0
137559,63.1338,-770.142,0,0
138860.775,61.7878,-758.731,0,0
140162.4,61.6967,-745.127,0,0
141464.025,62.2963,-732.011,0,0
142765.65,63.3201,-718.37,0,0
144067.275,65.4395,-704.845,0,0
145368.9,67.5113,-692.61,0,0
146670.525,68.2792,-679.551,0,0
147972.15,69.8722,-666.24,0,0
149273.775,71.2254,-652.932,0,0
150575.4,71.9849,-637.488,0,0
151877.025,74.2064,-620.338,0,0
153178.65,78.9322,-602.158,0,0
154480,85.8093,-584.265,0,0
155782,95.3472,-566.499,0,0
157084,107.438,-550.922,0,0
158385,120.317,-538.742,0,0
159687,129.983,-529.953,0,0
160988,133.674,-515.035,0,0
162290,143.523,-491.521,0,0
163592,162.87,-468.553,0,0
164893,190.821,-449.552,0,0
166195,220.37,-433.559,0,0
167497,266.478,-421.114,0,0
168798,319.152,-430.806,0,0
170100,362.052,-460.883,0,0
171401.375,396.581,-506.536,0,0
172703.0,405.338,-558.334,0,0
174004.625,386.252,-610.348,0,0
175306.25,350.483,-634.626,0,0
176607.875,325.297,-626.518,0,0
177909.5,331.566,-628.86,0,0
179211.125,333.81,-663.425,0,0
180512.75,297.266,-688.063,0,0
181814.375,262.559,-699.592,0,0
183116.0,218.805,-691.103,0,0
184417.625,188.596,-668.341,0,0
185719.25,172.649,-644.156,0,0
187021,156.621,-619.868,0,0
188322,152.004,-592.96,0,0
189624,147.788,-576.695,0,0
190926,140.763,-554.285,0,0
192227,140.212,-528.379,0,0
193529,142.741,-504.258,0,0
194831,149.168,-479.472,0,0
196132,160.468,-457.219,0,0
197434,173.309,-438.01,0,0
198735,186.077,-419.703,0,0
200037,200.016,-400.861,0,0
201339,218.487,-380.009,0,0
202640.35,243.288,-359.639,0,0
203941.975,274.735,-344.298,0,0
205243.6,311.081,-337.147,0,0
206545.225,349.36,-339.41,0,0
207846.85,378.126,-351.424,0,0
209148.475,405.251,-350.573,0,0
210450.1,456.702,-365.093,0,0
211751.725,494.623,-409.041,0,0
213053.35,506.481,-454.94,0,0
214354.975,508.909,-498.185,0,0
215656.6,495.414,-533.834,0,0
216958.225,486.943,-561.62,0,0
218259.85,465.207,-592.268,0,0
219561,434.459,-610.093,0,0
220863,403.174,-605.956,0,0
222165,387.219,-592.733,0,0
223466,384.506,-580.509,0,0
224768,386.716,-572.084,0,0
226070,396.108,-564.509,0,0
227371,414.229,-568.564,0,0
228673,430.004,-581.707,0,0
229974,441.334,-608.755,0,0
231276,440.979,-641.44,0,0
232578,426.166,-671.435,0,0
233879,403.844,-702.104,0,0
235180.95,359.311,-720.917,0,0
236482.575,320.44,-711.192,0,0
237784.2,298.169,-699.843,0,0
239085.825,273.867,-683.208,0,0
240387.45,267.527,-663.082,0,0
241689.075,263.387,-656.633,0,0
242990.7,250.639,-649.345,0,0
244292.325,242.069,-630.981,0,0
245593.95,246.156,-613.655,0,0
246895.575,251.495,-608.422,0,0
248197.2,252.278,-603.623,0,0
249498.825,254.821,-598.011,0,0
250800,259.197,-595.076,0,0
252102,262.823,-594.549,0,0
253404,265.818,-597.697,0,0
254705,265.248,-603.639,0,0
256007,258.122,-608.885,0,0
257309,248.542,-607.912,0,0
258610,240.184,-602.931,0,0
259912,235.423,-595.141,0,0
261213,233.166,-585.804,0,0
262515,236.802,-574.602,0,0
263817,248.838,-569.97,0,0
265118,257.143,-576.395,0,0
266420,258.516,-580.838,0,0
267721.55,261.972,-585.002,0,0
269023.175,262.752,-592.538,0,0
270324.8,263.247,-597.305,0,0
271626.425,267.293,-606.849,0,0
272928.05,270.472,-627.242,0,0
274229.675,252.779,-656.124,0,0
275531.3,216.514,-669.618,0,0
276832.925,179.935,-661.908,0,0
278134.55,153.943,-641.038,0,0
279436.175,141.967,-616.521,0,0
280737.8,138.412,-596.444,0,0
282039.425,138.207,-582.085,0,0
283341,135.949,-569.449,0,0
284643,135.424,-554.334,0,0
285944,140.217,-540.502,0,0
287246,146.571,-531.482,0,0
288548,150.238,-524.909,0,0
289849,153.872,-515.896,0,0
291151,160.071,-507.591,0,0
292452,167.796,-501.213,0,0
293754,175.752,-496.333,0,0
295056,184.065,-492.077,0,0
296357,194.293,-488.11,0,0
297659,207.19,-486.801,0,0
298960.525,221.297,-489.876,0,0
300262.15,235.186,-496.799,0,0
301563.775,249.921,-508.306,0,0
302865.4,263.534,-530.813,0,0
304167.025,259.976,-561.641,0,0
305468.65,244.604,-583.296,0,0
306770.275,224.984,-597.341,0,0
308071.9,203.679,-603.425,0,0
309373.525,184.028,-603.003,0,0
310675.15,168.163,-598.398,0,0
311976.775,155.545,-592.054,0,0
313278.4,145.678,-585.501,0,0
314580,136.727,-578.464,0,0
315882,129.693,-570.202,0,0
317183,125.301,-562.27,0,0
318485,122.229,-555.72,0,0
319787,119.666,-549.451,0,0
321088,118.495,-544.491,0,0
322390,116.905,-540.977,0,0
323691,114.565,-538.056,0,0
324993,111.871,-534.81,0,0
326295,109.358,-531.539,0,0
327596,106.855,-528.761,0,0
328898,103.879,-526.18,0,0
330200,100.572,-523.282,0,0
331501.125,97.297,-520.319,0,0
332802.75,93.323,-517.869,0,0
334104.375,88.3334,-514.267,0,0
335406.0,83.6554,-509.423,0,0
336707.625,79.2914,-503.943,0,0
338009.25,75.7273,-497.447,0,0
339310.875,73.357,-490.814,0,0
340612.5,71.5614,-484.332,0,0
341914.125,70.2267,-477.777,0,0
343215.75,69.8221,-471.276,0,0
344517.375,70.2174,-465.161,0,0
345819.0,71.186,-460.04,0,0
347121,71.8644,-455.795,0,0
348422,71.866,-452.001,0,0
349724,71.3351,-447.553,0,0
351025,71.0648,-442.552,0,0
352327,71.5744,-437.112,0,0
353629,73.0986,-431.986,0,0
354930,75.3965,-428.007,0,0
356232,77.1496,-425.468,0,0
357534,77.4656,-423.172,0,0
358835,76.8343,-419.953,0,0
360137,76.4409,-415.203,0,0
361438,77.6317,-409.984,0,0
362740.1,79.8018,-405.402,0,0
364041.725,82.5218,-401.684,0,0
365343.35,85.2902,-398.594,0,0
366644.975,87.9501,-396.52,0,0
367946.6,89.9384,-394.703,0,0
369248.225,92.0235,-393.148,0,0
370549.85,93.3972,-392.666,0,0
371851.475,92.7766,-391.744,0,0
373153.1,91.9604,-388.71,0,0
374454.725,92.491,-385.01,0,0
375756.35,93.6822,-381.599,0,0
377057.975,95.1427,-378.279,0,0
378359.6,96.7282,-375.053,0,0
379661,98.7824,-371.566,0,0
380963,101.475,-368.492,0,0
382264,104.335,-365.791,0,0
383566,107.553,-363.602,0,0
384868,110.481,-361.92,0,0
386169,113.142,-360.478,0,0
387471,115.598,-358.465,0,0
388773,118.688,-356.307,0,0
390074,122.518,-354.313,0,0
391376,126.79,-353.151,0,0
392677,130.685,-352.477,0,0
393979,135.129,-351.445,0,0
395280.7,140.554,-350.801,0,0
396582.325,147.141,-351.56,0,0
397883.95,154.559,-354.162,0,0
399185.575,161.807,-360.436,0,0
400006.6,164.885,-366.336,0,0