Folder: ML_Dmg_Mehdi_Dataset/Accelerated corrosion test data/2025-10-01_18-00-03 (part 4)

File: sample_8.csv
Frequency (Hz),Impedance (ohms),Phase (Radians),Temperature (C),Humidity (%)
10000.0,324.928,-10814.1,0,0
11301.625,287.404,-9584.99,0,0
12603.25,263.631,-8608.14,0,0
13904.875,233.535,-7817.7,0,0
15206.5,213.131,-7154.62,0,0
16508.125,196.576,-6596.67,0,0
17809.75,182.515,-6117.27,0,0
19111.375,173.179,-5701.82,0,0
20413.0,164.399,-5344,0,0
21714.625,155.65,-5027.34,0,0
23016.25,149.074,-4748.26,0,0
24317.875,138.179,-4496.05,0,0
25619.5,131.383,-4267.08,0,0
26921.1,125.812,-4059.21,0,0
28222.7,122.154,-3871.26,0,0
29524.4,119.284,-3700.39,0,0
30826,116.607,-3545.14,0,0
32127.6,113.969,-3400.87,0,0
33429.2,114.768,-3267.77,0,0
34730.9,112.75,-3150.36,0,0
36032.5,108.507,-3041.69,0,0
37334.1,102.011,-2937.09,0,0
38635.7,95.3964,-2837.69,0,0
39937.4,89.6599,-2743.35,0,0
41239,87.1547,-2653.58,0,0
42540.6,84.4976,-2569.77,0,0
43842.225,83.3451,-2492.48,0,0
45143.85,80.4773,-2418.94,0,0
46445.475,78.0667,-2349.26,0,0
47747.1,76.7053,-2283.22,0,0
49048.725,74.5775,-2220.78,0,0
50350.35,72.7667,-2160.92,0,0
51651.975,71.9227,-2103.61,0,0
52953.6,71.4272,-2050.07,0,0
54255.225,70.1121,-2000.62,0,0
55556.85,66.7444,-1951.73,0,0
56858.475,64.664,-1903.31,0,0
58160.1,63.8119,-1857,0,0
59461.7,63.9103,-1813.77,0,0
60763.3,62.2224,-1771.78,0,0
62065,62.165,-1731.15,0,0
63366.6,62.4126,-1692.03,0,0
64668.2,64.0048,-1655.66,0,0
65969.8,62.9031,-1622.76,0,0
67271.5,60.6589,-1588.32,0,0
68573.1,59.8631,-1554.44,0,0
69874.7,59.7259,-1521.82,0,0
71176.3,60.189,-1490.65,0,0
72478,60.6211,-1461.44,0,0
73779.6,59.7007,-1432.87,0,0
75081.2,59.1061,-1404.78,0,0
76382.825,59.1147,-1377.21,0,0
77684.45,58.8888,-1350.9,0,0
78986.075,58.4953,-1324.84,0,0
80287.7,58.5379,-1299.04,0,0
81589.325,58.9106,-1273.9,0,0
82890.95,60.147,-1249.15,0,0
84192.575,62.1337,-1225.89,0,0
85494.2,63.5969,-1204.52,0,0
86795.825,63.6087,-1182.58,0,0
88097.45,64.9871,-1160.47,0,0
89399.075,67.3907,-1139.44,0,0
90700.7,70.126,-1119.04,0,0
92002.3,74.7314,-1100.31,0,0
93303.9,77.565,-1086.01,0,0
94605.6,75.6594,-1069.99,0,0
95907.2,76.8107,-1052.44,0,0
97208.8,77.6022,-1035.1,0,0
98510.4,79.4861,-1019.5,0,0
99812.1,79.7901,-1005.19,0,0
101114,80.1814,-990.347,0,0
102415,80.0463,-974.85,0,0
103717,80.5513,-960.563,0,0
105019,80.1851,-946.3,0,0
106320.175,79.8201,-931.682,0,0
107621.8,79.6833,-917.164,0,0
108923.425,79.9871,-902.598,0,0
110225.05,80.4697,-889.105,0,0
111526.675,80.2164,-875.902,0,0
112828.3,79.9905,-862.348,0,0
114129.925,79.8278,-849.06,0,0
115431.55,78.8786,-835.934,0,0
116733.175,78.2202,-822.22,0,0
118034.8,77.631,-808.309,0,0
119336.425,77.9459,-794.127,0,0
120638.05,77.9017,-780.412,0,0
121939.675,78.4002,-766.557,0,0
123241,78.9241,-752.819,0,0
124543,79.8338,-738.631,0,0
125845,81.6501,-725.211,0,0
127146,83.4714,-712.581,0,0
128448,84.4897,-700.497,0,0
129749,84.5556,-687.962,0,0
131051,84.1437,-673.624,0,0
132353,87.1426,-659.106,0,0
133654,89.8803,-645.593,0,0
134956,92.3927,-633.268,0,0
136258,94.4018,-620.877,0,0
137559,96.0397,-608.862,0,0
138860.775,95.3391,-594.944,0,0
140162.4,97.0796,-579.108,0,0
141464.025,99.4136,-563.097,0,0
142765.65,103.255,-546.389,0,0
144067.275,107.733,-528.74,0,0
145368.9,115.522,-510.083,0,0
146670.525,126.733,-494.414,0,0
147972.15,137.24,-481.898,0,0
149273.775,143.593,-465.439,0,0
150575.4,159.929,-447.357,0,0
151877.025,181.589,-436.197,0,0
153178.65,196.382,-437.161,0,0
154480,204.091,-434.179,0,0
155782,213.923,-424.778,0,0
157084,224.703,-426.769,0,0
158385,225.285,-415.148,0,0
159687,244.285,-402.538,0,0
160988,252.927,-408.01,0,0
162290,261.137,-398.049,0,0
163592,275.739,-398.105,0,0
164893,280.148,-403.599,0,0
166195,281.72,-404.737,0,0
167497,270.835,-401.705,0,0
168798,264.594,-382.766,0,0
170100,269.363,-359.657,0,0
171401.375,279.9,-339.128,0,0
172703.0,294.82,-318.118,0,0
174004.625,315.823,-301.639,0,0
175306.25,336.402,-291.121,0,0
176607.875,354.171,-275.878,0,0
177909.5,378.548,-262.674,0,0
179211.125,408.173,-249.364,0,0
180512.75,440.037,-241.695,0,0
181814.375,475.29,-239.152,0,0
183116.0,510.198,-241.562,0,0
184417.625,542.787,-245.284,0,0
185719.25,577.639,-251.139,0,0
187021,619.952,-261.275,0,0
188322,659.493,-278.761,0,0
189624,697.121,-307.46,0,0
190926,733.339,-328.562,0,0
192227,783.468,-363.25,0,0
193529,821.929,-420.763,0,0
194831,857.544,-489.239,0,0
196132,864.309,-575.154,0,0
197434,847.102,-663.385,0,0
198735,796.793,-732.232,0,0
200037,743.106,-783.234,0,0
201339,675.684,-805.036,0,0
202640.35,626.321,-815.866,0,0
203941.975,578.307,-814.889,0,0
205243.6,536.587,-806.154,0,0
206545.225,501.481,-788.707,0,0
207846.85,483.156,-762.341,0,0
209148.475,477.171,-746.182,0,0
210450.1,474.708,-731.456,0,0
211751.725,480.743,-722.418,0,0
213053.35,489.671,-726.168,0,0
214354.975,488.421,-738.545,0,0
215656.6,479.053,-745.858,0,0
216958.225,471.222,-744.149,0,0
218259.85,475.895,-743.81,0,0
219561,482.894,-754.693,0,0
220863,486.796,-774.13,0,0
222165,481.074,-802.394,0,0
223466,460.901,-830.291,0,0
224768,433.205,-847.743,0,0
226070,402.66,-859.474,0,0
227371,370.375,-862.888,0,0
228673,341.283,-859.447,0,0
229974,316.583,-853.365,0,0
231276,292.399,-845.947,0,0
232578,270.177,-835.68,0,0
233879,249.287,-822.47,0,0
235180.95,231.922,-806.216,0,0
236482.575,219.446,-788.507,0,0
237784.2,211.55,-772.499,0,0
239085.825,205.71,-758.858,0,0
240387.45,200.476,-747.783,0,0
241689.075,194.241,-737.105,0,0
242990.7,188.167,-725.519,0,0
244292.325,184.29,-713.656,0,0
245593.95,180.416,-703.447,0,0
246895.575,176.941,-691.579,0,0
248197.2,175.836,-680.199,0,0
249498.825,174.821,-669.39,0,0
250800,175.611,-657.362,0,0
252102,180.471,-646.706,0,0
253404,186.355,-641.562,0,0
254705,188.151,-636.903,0,0
256007,191.463,-630.253,0,0
257309,196.952,-626.186,0,0
258610,201.992,-623.929,0,0
259912,206.509,-623.633,0,0
261213,209.498,-624.269,0,0
262515,211.032,-625.184,0,0
263817,211.908,-624.617,0,0
265118,214.434,-622.727,0,0
266420,221.74,-621.59,0,0
267721.55,231.88,-626.976,0,0
269023.175,239.629,-640.835,0,0
270324.8,238.351,-660.181,0,0
271626.425,228.379,-678.171,0,0
272928.05,211.024,-692.431,0,0
274229.675,188.253,-698.758,0,0
275531.3,165.743,-695.997,0,0
276832.925,148.405,-686.803,0,0
278134.55,136.016,-676.796,0,0
279436.175,126.004,-665.905,0,0
280737.8,120.082,-653.929,0,0
282039.425,117.107,-644.928,0,0
283341,114.758,-636.891,0,0
284643,113.585,-629.914,0,0
285944,113.42,-624.304,0,0
287246,114.586,-621.817,0,0
288548,112.228,-622.625,0,0
289849,106.711,-622.264,0,0
291151,100.23,-619.864,0,0
292452,93.332,-616.785,0,0
293754,85.6965,-611.455,0,0
295056,79.6237,-604.276,0,0
296357,74.9294,-596.765,0,0
297659,71.2441,-589.064,0,0
298960.525,68.6688,-581.269,0,0
300262.15,67.1258,-573.713,0,0
301563.775,66.3911,-566.539,0,0
302865.4,66.7922,-560.099,0,0
304167.025,67.4404,-554.866,0,0
305468.65,67.9045,-550.451,0,0
306770.275,68.222,-546.441,0,0
308071.9,68.4457,-543.044,0,0
309373.525,68.3574,-540.372,0,0
310675.15,67.2836,-537.725,0,0
311976.775,66.0036,-534.865,0,0
313278.4,64.4971,-531.853,0,0
314580,62.656,-528.443,0,0
315882,61.2516,-524.425,0,0
317183,60.415,-520.451,0,0
318485,60.0032,-516.904,0,0
319787,59.5612,-513.912,0,0
321088,59.0073,-511.42,0,0
322390,57.6518,-509.122,0,0
323691,56.0462,-506.711,0,0
324993,53.9203,-503.955,0,0
326295,51.6447,-500.592,0,0
327596,49.7921,-496.936,0,0
328898,48.0559,-492.985,0,0
330200,46.5873,-488.891,0,0
331501.125,45.3596,-484.788,0,0
332802.75,44.3956,-480.485,0,0
334104.375,43.7815,-476.202,0,0
335406.0,43.7286,-472.123,0,0
336707.625,43.7854,-468.534,0,0
338009.25,43.7261,-465.342,0,0
339310.875,43.4596,-462.3,0,0
340612.5,42.939,-459.351,0,0
341914.125,42.3591,-456.203,0,0
343215.75,41.6019,-452.979,0,0
344517.375,40.8947,-449.377,0,0
345819.0,40.5592,-445.761,0,0
347121,40.3952,-441.996,0,0
348422,40.5617,-438.417,0,0
349724,40.9111,-434.968,0,0
351025,41.3798,-431.814,0,0
352327,41.8346,-428.93,0,0
353629,42.1411,-426.066,0,0
354930,42.5593,-423.375,0,0
356232,42.9302,-420.812,0,0
357534,43.0079,-418.407,0,0
358835,42.9105,-415.75,0,0
360137,42.8793,-413.001,0,0
361438,42.9937,-410.082,0,0
362740.1,43.1617,-407.082,0,0
364041.725,43.8129,-404.007,0,0
365343.35,44.6819,-401.139,0,0
366644.975,45.7835,-398.623,0,0
367946.6,46.8659,-396.498,0,0
369248.225,47.8039,-394.503,0,0
370549.85,48.9559,-392.673,0,0
371851.475,50.0805,-391.49,0,0
373153.1,50.5692,-390.775,0,0
374454.725,50.2062,-389.869,0,0
375756.35,49.6917,-388.26,0,0
377057.975,49.6422,-386.518,0,0
378359.6,49.4599,-385.19,0,0
379661,48.8336,-383.378,0,0
380963,49.2354,-381.334,0,0
382264,49.2866,-380.953,0,0
383566,47.5103,-379.895,0,0
384868,45.8376,-377.58,0,0
386169,44.7779,-374.747,0,0
387471,44.1418,-371.757,0,0
388773,43.9419,-368.761,0,0
390074,44.1144,-365.967,0,0
391376,44.3017,-363.543,0,0
392677,44.3334,-361.231,0,0
393979,44.2046,-358.809,0,0
395280.7,44.2288,-356.166,0,0
396582.325,44.4666,-353.583,0,0
397883.95,44.8124,-351.179,0,0
399185.575,45.0364,-348.845,0,0
400006.6,45.1747,-347.359,0,0