Folder: ML_Dmg_Mehdi_Dataset/Accelerated corrosion test data/2025-10-16_06-00-08

Note: README.md
# ML_Dmg_Mehdi_Dataset

File: sample_1.csv
Frequency (Hz),Impedance (ohms),Phase (Radians),Temperature (C),Humidity (%)
10000.0,241.664,-12219.1,0,0
11301.625,214.47,-10823.2,0,0
12603.25,195.128,-9721.6,0,0
13904.875,182.453,-8796.61,0,0
15206.5,185.1,-8062.09,0,0
16508.125,155.202,-7438.04,0,0
17809.75,146.622,-6901.05,0,0
19111.375,135.677,-6432.36,0,0
20413.0,155.154,-5988.35,0,0
21714.625,136.355,-5671.8,0,0
23016.25,122.063,-5368.39,0,0
24317.875,112.875,-5075.68,0,0
25619.5,104.971,-4811.14,0,0
26921.1,114.214,-4561.4,0,0
28222.7,110.604,-4357.67,0,0
29524.4,107.771,-4192.17,0,0
30826,100.894,-4004.43,0,0
32127.6,97.6659,-3846.08,0,0
33429.2,88.8405,-3702.46,0,0
34730.9,82.2805,-3560.29,0,0
36032.5,77.7718,-3428.82,0,0
37334.1,75.2226,-3306.68,0,0
38635.7,72.8657,-3192.85,0,0
39937.4,70.9353,-3085.86,0,0
41239,72.0513,-2987.16,0,0
42540.6,70.5679,-2894.66,0,0
43842.225,67.8473,-2807.63,0,0
45143.85,68.6095,-2726.17,0,0
46445.475,65.3876,-2649.5,0,0
47747.1,64.025,-2575.69,0,0
49048.725,61.3982,-2505.59,0,0
50350.35,59.6409,-2439.05,0,0
51651.975,58.6809,-2375.15,0,0
52953.6,57.7869,-2314.21,0,0
54255.225,56.733,-2257.21,0,0
55556.85,55.8396,-2201.78,0,0
56858.475,54.9197,-2148.66,0,0
58160.1,54.5948,-2097.98,0,0
59461.7,54.4949,-2049.98,0,0
60763.3,54.5122,-2003.86,0,0
62065,53.0604,-1959.96,0,0
63366.6,52.4706,-1916.34,0,0
64668.2,52.9235,-1874.15,0,0
65969.8,55.1863,-1836.37,0,0
67271.5,53.7424,-1799.86,0,0
68573.1,53.1805,-1764.09,0,0
69874.7,52.1546,-1730.12,0,0
71176.3,50.4117,-1695.59,0,0
72478,48.5216,-1661.77,0,0
73779.6,48.2053,-1628.32,0,0
75081.2,48.5174,-1595.95,0,0
76382.825,49.2014,-1564.93,0,0
77684.45,50.2819,-1535.57,0,0
78986.075,51.9588,-1507.89,0,0
80287.7,51.169,-1481.52,0,0
81589.325,50.5356,-1453.56,0,0
82890.95,51.2632,-1426.71,0,0
84192.575,52.7339,-1400.64,0,0
85494.2,54.8959,-1375.72,0,0
86795.825,55.9541,-1352.74,0,0
88097.45,56.2469,-1329.39,0,0
89399.075,58.02,-1304.57,0,0
90700.7,61.3711,-1281.39,0,0
92002.3,67.6515,-1260.1,0,0
93303.9,75.0262,-1243.27,0,0
94605.6,73.9964,-1236.25,0,0
95907.2,67.1615,-1217.52,0,0
97208.8,65.0973,-1196.99,0,0
98510.4,64.4155,-1176.28,0,0
99812.1,63.5035,-1156.84,0,0
101114,63.4505,-1136.55,0,0
102415,63.6827,-1114.99,0,0
103717,68.5403,-1093.67,0,0
105019,75.4192,-1076.34,0,0
106320.175,81.3892,-1059.98,0,0
107621.8,87.8879,-1047.54,0,0
108923.425,92.1966,-1036.81,0,0
110225.05,94.2523,-1028.36,0,0
111526.675,94.3043,-1015.77,0,0
112828.3,96.7277,-1006.27,0,0
114129.925,95.5156,-998.42,0,0
115431.55,92.0632,-988.793,0,0
116733.175,87.5254,-976.702,0,0
118034.8,83.2518,-962.499,0,0
119336.425,81.5045,-946.935,0,0
120638.05,81.7188,-932.586,0,0
121939.675,80.5856,-919.924,0,0
123241,79.1846,-905.446,0,0
124543,79.0427,-890.389,0,0
125845,79.6982,-875.668,0,0
127146,80.891,-861.199,0,0
128448,82.9429,-846.643,0,0
129749,85.4822,-832.726,0,0
131051,90.29,-819.266,0,0
132353,94.7153,-808.777,0,0
133654,97.469,-798.27,0,0
134956,100.349,-787.545,0,0
136258,103.312,-776.909,0,0
137559,108.352,-767.15,0,0
138860.775,110.508,-761.136,0,0
140162.4,110.147,-752.77,0,0
141464.025,109.752,-742.643,0,0
142765.65,110.256,-731.63,0,0
144067.275,111.67,-720.062,0,0
145368.9,114.338,-708.865,0,0
146670.525,117.358,-698.924,0,0
147972.15,119.838,-690.158,0,0
149273.775,121.077,-679.314,0,0
150575.4,123.489,-670.96,0,0
151877.025,121.903,-660.004,0,0
153178.65,121.7,-645.006,0,0
154480,125.732,-628.18,0,0
155782,133.106,-611.654,0,0
157084,145.214,-596.786,0,0
158385,157.961,-587.55,0,0
159687,167.304,-576.721,0,0
160988,185.392,-565.708,0,0
162290,204.717,-565.101,0,0
163592,216.263,-568.263,0,0
164893,228.156,-570.031,0,0
166195,240.611,-575.957,0,0
167497,246.68,-587.047,0,0
168798,245.933,-598.645,0,0
170100,237.05,-605.767,0,0
171401.375,228.188,-603.539,0,0
172703.0,224.627,-598.123,0,0
174004.625,221.33,-594.286,0,0
175306.25,219.958,-588.832,0,0
176607.875,219.69,-585.759,0,0
177909.5,218.418,-582.595,0,0
179211.125,214.277,-581.263,0,0
180512.75,207.236,-577.578,0,0
181814.375,199.879,-569.088,0,0
183116.0,193.607,-558.383,0,0
184417.625,188.389,-545.094,0,0
185719.25,186.598,-528.486,0,0
187021,187.87,-513.502,0,0
188322,191.494,-498.091,0,0
189624,195.404,-483.87,0,0
190926,199.636,-468.899,0,0
192227,205.122,-452.438,0,0
193529,213.789,-435.162,0,0
194831,224.367,-418.392,0,0
196132,237.473,-401.028,0,0
197434,253.205,-383.891,0,0
198735,272.874,-367.538,0,0
200037,293.883,-352.453,0,0
201339,320.091,-336.044,0,0
202640.35,354.62,-320.857,0,0
203941.975,397.109,-314.344,0,0
205243.6,448.778,-321.011,0,0
206545.225,494.339,-348.397,0,0
207846.85,524.379,-387.023,0,0
209148.475,539.294,-427.102,0,0
210450.1,538.833,-464.972,0,0
211751.725,527.397,-484.174,0,0
213053.35,524.651,-488.201,0,0
214354.975,536.809,-495.432,0,0
215656.6,548.987,-509.427,0,0
216958.225,558.489,-526.065,0,0
218259.85,569.972,-541.841,0,0
219561,584.392,-558.802,0,0
220863,603.332,-584.352,0,0
222165,620.617,-621.355,0,0
223466,625.679,-669.9,0,0
224768,616.121,-718.275,0,0
226070,595.696,-764.336,0,0
227371,565.504,-805.139,0,0
228673,524.097,-838.529,0,0
229974,477.587,-856.4,0,0
231276,434.142,-861.134,0,0
232578,397.879,-857.57,0,0
233879,369.647,-851.402,0,0
235180.95,346.033,-846.594,0,0
236482.575,321.392,-842.646,0,0
237784.2,297.707,-835.976,0,0
239085.825,275.427,-826.85,0,0
240387.45,256.157,-815.761,0,0
241689.075,239.341,-804.644,0,0
242990.7,224.377,-792.191,0,0
244292.325,212.126,-780.753,0,0
245593.95,200.381,-770.001,0,0
246895.575,188.477,-758.687,0,0
248197.2,178.13,-746.064,0,0
249498.825,169.772,-733.49,0,0
250800,162.633,-721.245,0,0
252102,156.275,-709.085,0,0
253404,150.585,-696.808,0,0
254705,146.619,-683.802,0,0
256007,144.481,-671.538,0,0
257309,142.905,-659.958,0,0
258610,142.293,-648.434,0,0
259912,143.837,-636.52,0,0
261213,148.053,-626.603,0,0
262515,153.003,-619.047,0,0
263817,158.56,-613.67,0,0
265118,164.372,-610.355,0,0
266420,171.032,-610.557,0,0
267721.55,174.202,-616.559,0,0
269023.175,170.134,-623.173,0,0
270324.8,160.269,-625.642,0,0
271626.425,149.639,-621.147,0,0
272928.05,142.721,-612.397,0,0
274229.675,140.019,-603.112,0,0
275531.3,139.847,-595.244,0,0
276832.925,140.592,-588.77,0,0
278134.55,142.494,-583.632,0,0
279436.175,144.347,-580.646,0,0
280737.8,145.139,-579.043,0,0
282039.425,144.369,-578.358,0,0
283341,141.151,-576.741,0,0
284643,138.169,-572.865,0,0
285944,135.997,-569.077,0,0
287246,132.225,-564.948,0,0
288548,129.388,-556.673,0,0
289849,131.69,-548.577,0,0
291151,135.164,-544.663,0,0
292452,136.849,-542.521,0,0
293754,135.696,-540.058,0,0
295056,134.307,-534.312,0,0
296357,136.466,-526.65,0,0
297659,141.578,-521.63,0,0
298960.525,146.326,-518.343,0,0
300262.15,151.383,-515.829,0,0
301563.775,157.336,-513.801,0,0
302865.4,164.791,-514.919,0,0
304167.025,170.015,-518.633,0,0
305468.65,173.9,-522.732,0,0
306770.275,177.462,-528.125,0,0
308071.9,178.474,-535.643,0,0
309373.525,176.434,-541.901,0,0
310675.15,174.692,-547.484,0,0
311976.775,171.311,-554.277,0,0
313278.4,164.566,-560.534,0,0
314580,156.33,-563.682,0,0
315882,148.902,-565.04,0,0
317183,140.828,-565.766,0,0
318485,132.828,-564.761,0,0
319787,125.096,-562.607,0,0
321088,117.785,-559.016,0,0
322390,111.705,-554.36,0,0
323691,106.798,-548.754,0,0
324993,103.753,-543.292,0,0
326295,101.905,-538.587,0,0
327596,100.719,-534.955,0,0
328898,99.3553,-532.438,0,0
330200,97.5892,-530.576,0,0
331501.125,95.0281,-529.036,0,0
332802.75,91.8666,-527.22,0,0
334104.375,88.1642,-524.901,0,0
335406.0,84.3169,-521.999,0,0
336707.625,80.777,-518.524,0,0
338009.25,77.5096,-514.755,0,0
339310.875,74.559,-510.632,0,0
340612.5,72.0307,-506.438,0,0
341914.125,69.8612,-502.362,0,0
343215.75,67.6639,-498.432,0,0
344517.375,65.4435,-494.464,0,0
345819.0,63.4113,-490.091,0,0
347121,61.5461,-485.637,0,0
348422,60.0589,-480.818,0,0
349724,59.1827,-476.206,0,0
351025,58.3673,-471.817,0,0
352327,57.8194,-467.463,0,0
353629,57.4294,-463.376,0,0
354930,57.1336,-459.313,0,0
356232,56.9443,-455.326,0,0
357534,56.9393,-451.517,0,0
358835,56.9292,-447.655,0,0
360137,57.0561,-443.872,0,0
361438,57.44,-440.231,0,0
362740.1,57.7048,-436.784,0,0
364041.725,57.9916,-433.164,0,0
365343.35,58.5749,-429.691,0,0
366644.975,59.1225,-426.346,0,0
367946.6,59.2815,-422.831,0,0
369248.225,59.9713,-418.404,0,0
370549.85,61.851,-413.98,0,0
371851.475,64.7771,-410.082,0,0
373153.1,68.2499,-407.454,0,0
374454.725,71.707,-406.077,0,0
375756.35,74.4275,-405.622,0,0
377057.975,76.3621,-405.313,0,0
378359.6,78.2616,-405.18,0,0
379661,79.7516,-405.473,0,0
380963,81.0796,-405.361,0,0
382264,82.7994,-406.655,0,0
383566,82.9261,-408.921,0,0
384868,81.3317,-410.878,0,0
386169,78.7834,-411.798,0,0
387471,75.7039,-411.551,0,0
388773,72.8897,-410.037,0,0
390074,70.9995,-407.942,0,0
391376,69.6464,-406.172,0,0
392677,68.249,-404.787,0,0
393979,66.0804,-403.382,0,0
395280.7,63.5716,-401.162,0,0
396582.325,61.4168,-398.124,0,0
397883.95,59.8891,-394.755,0,0
399185.575,58.7436,-391.267,0,0
400006.6,58.2187,-388.98,0,0

File: sample_2.csv
Frequency (Hz),Impedance (ohms),Phase (Radians),Temperature (C),Humidity (%)
10000.0,229.682,-11451.9,0,0
11301.625,204.02,-10142.9,0,0
12603.25,183.738,-9105.62,0,0
13904.875,187.096,-8256.26,0,0
15206.5,165.238,-7566.24,0,0
16508.125,143.258,-6970.85,0,0
17809.75,133.024,-6461.87,0,0
19111.375,128.525,-6021.2,0,0
20413.0,118.109,-5637.71,0,0
21714.625,127.572,-5307.71,0,0
23016.25,112.577,-5011.09,0,0
24317.875,102.771,-4745.08,0,0
25619.5,97.5951,-4500.89,0,0
26921.1,94.6246,-4281.94,0,0
28222.7,89.8637,-4082.59,0,0
29524.4,93.2501,-3898.31,0,0
30826,87.7447,-3744.17,0,0
32127.6,81.5951,-3589.14,0,0
33429.2,79.6955,-3450.93,0,0
34730.9,75.5219,-3319.59,0,0
36032.5,72.9052,-3197.96,0,0
37334.1,70.7619,-3084.28,0,0
38635.7,68.7579,-2979,0,0
39937.4,66.7657,-2880.1,0,0
41239,65.4769,-2786.97,0,0
42540.6,64.3123,-2700.48,0,0
43842.225,63.0228,-2618.1,0,0
45143.85,61.8546,-2539.96,0,0
46445.475,61.1329,-2467.73,0,0
47747.1,60.3328,-2398.13,0,0
49048.725,60.5231,-2334.19,0,0
50350.35,57.8511,-2271.99,0,0
51651.975,56.6245,-2212.72,0,0
52953.6,54.9682,-2155.31,0,0
54255.225,54.3478,-2100.6,0,0
55556.85,53.8779,-2048.36,0,0
56858.475,53.8414,-1998.46,0,0
58160.1,54.0207,-1951.15,0,0
59461.7,54.5686,-1904.96,0,0
60763.3,56.2414,-1862.44,0,0
62065,58.9044,-1823.97,0,0
63366.6,55.4272,-1787.22,0,0
64668.2,53.0672,-1748.84,0,0
65969.8,50.7442,-1709.73,0,0
67271.5,51.2198,-1672.43,0,0
68573.1,53.3487,-1638.32,0,0
69874.7,55.8812,-1607.99,0,0
71176.3,52.5201,-1579.89,0,0
72478,47.9508,-1549.31,0,0
73779.6,45.1865,-1516.42,0,0
75081.2,45.1753,-1483.94,0,0
76382.825,46.8973,-1453.52,0,0
77684.45,49.6005,-1425.18,0,0
78986.075,52.9956,-1400.85,0,0
80287.7,51.8011,-1379.4,0,0
81589.325,49.1989,-1354.24,0,0
82890.95,48.0047,-1328.5,0,0
84192.575,48.7404,-1303.66,0,0
85494.2,49.4813,-1280.12,0,0
86795.825,50.458,-1258.06,0,0
88097.45,51.0191,-1236.74,0,0
89399.075,51.2525,-1215.18,0,0
90700.7,51.3887,-1195.05,0,0
92002.3,52.9208,-1173.77,0,0
93303.9,55.3478,-1154.8,0,0
94605.6,55.3072,-1138.25,0,0
95907.2,54.1587,-1118.75,0,0
97208.8,57.792,-1101.37,0,0
98510.4,57.634,-1087.59,0,0
99812.1,53.4797,-1073.04,0,0
101114,50.6202,-1055.41,0,0
102415,46.8968,-1035.33,0,0
103717,46.0485,-1014.28,0,0
105019,49.3039,-993.911,0,0
106320.175,53.9818,-976.67,0,0
107621.8,57.7164,-964.74,0,0
108923.425,56.1384,-952.695,0,0
110225.05,52.9674,-937.567,0,0
111526.675,51.514,-919.682,0,0
112828.3,52.035,-902.107,0,0
114129.925,53.6699,-884.955,0,0
115431.55,56.3398,-868.294,0,0
116733.175,59.8028,-852.807,0,0
118034.8,63.893,-838.52,0,0
119336.425,67.7883,-826.503,0,0
120638.05,70.1249,-815.93,0,0
121939.675,69.7533,-804.966,0,0
123241,68.9692,-792.119,0,0
124543,68.4302,-778.505,0,0
125845,68.4682,-763.673,0,0
127146,69.834,-748.502,0,0
128448,72.8384,-733.907,0,0
129749,75.7928,-720.883,0,0
131051,78.5475,-708.072,0,0
132353,80.0196,-696.107,0,0
133654,81.1538,-682.485,0,0
134956,82.3782,-668.596,0,0
136258,84.5346,-653.485,0,0
137559,87.4513,-638.375,0,0
138860.775,90.6907,-623.437,0,0
140162.4,93.8745,-607.386,0,0
141464.025,99.2222,-588.681,0,0
142765.65,108.532,-571.115,0,0
144067.275,118.734,-555.748,0,0
145368.9,129.752,-540.482,0,0
146670.525,142.68,-525.999,0,0
147972.15,158.002,-511.778,0,0
149273.775,178.216,-498.626,0,0
150575.4,205.075,-494.184,0,0
151877.025,227.857,-504.009,0,0
153178.65,237.489,-518.625,0,0
154480,237.068,-530.015,0,0
155782,233.532,-533.511,0,0
157084,228.147,-534.259,0,0
158385,223.712,-527.426,0,0
159687,224.612,-521.397,0,0
160988,224.496,-516.082,0,0
162290,230.96,-510.902,0,0
163592,228.124,-517.294,0,0
164893,215.237,-514.988,0,0
166195,201.872,-502.106,0,0
167497,194.27,-482.805,0,0
168798,191.711,-460.723,0,0
170100,193.498,-438.6,0,0
171401.375,198.059,-416.414,0,0
172703.0,206.669,-392.985,0,0
174004.625,218.651,-369.242,0,0
175306.25,237.222,-345.151,0,0
176607.875,262.289,-327.686,0,0
177909.5,288.584,-315.798,0,0
179211.125,312.056,-315.085,0,0
180512.75,322.451,-314.913,0,0
181814.375,327.462,-300.491,0,0
183116.0,343.674,-280.155,0,0
184417.625,367.004,-256.932,0,0
185719.25,401.692,-237.41,0,0
187021,439.119,-225.642,0,0
188322,480.996,-216.663,0,0
189624,521.604,-215.386,0,0
190926,566.648,-210.147,0,0
192227,624.813,-208.635,0,0
193529,697.007,-223.029,0,0
194831,768.572,-268.116,0,0
196132,821.344,-329.945,0,0
197434,860.628,-396.183,0,0
198735,894.057,-474.682,0,0
200037,901.493,-560.065,0,0
201339,894.624,-647.928,0,0
202640.35,860.288,-727.264,0,0
203941.975,810.033,-790.913,0,0
205243.6,757.975,-839.003,0,0
206545.225,693.656,-868.803,0,0
207846.85,639.905,-878.057,0,0
209148.475,602.188,-882.572,0,0
210450.1,563.472,-896.677,0,0
211751.725,515.967,-900.697,0,0
213053.35,474.806,-890.009,0,0
214354.975,442.471,-875.888,0,0
215656.6,416.912,-860.695,0,0
216958.225,396.607,-844.157,0,0
218259.85,382.143,-828.429,0,0
219561,371.609,-813.886,0,0
220863,364.869,-802.166,0,0
222165,360.944,-792.014,0,0
223466,359.936,-787.153,0,0
224768,356.279,-785.391,0,0
226070,351.532,-783.63,0,0
227371,349.695,-782.629,0,0
228673,348.669,-787.313,0,0
229974,342.141,-797.264,0,0
231276,328.772,-805.69,0,0
232578,312.977,-810.496,0,0
233879,295.477,-812.275,0,0
235180.95,278.063,-810.858,0,0
236482.575,261.338,-807.825,0,0
237784.2,244.286,-802.885,0,0
239085.825,228.421,-795.145,0,0
240387.45,214.235,-785.831,0,0
241689.075,202.59,-775.834,0,0
242990.7,192.717,-765.493,0,0
244292.325,184.498,-756.955,0,0
245593.95,175.892,-749.851,0,0
246895.575,164.889,-743.541,0,0
248197.2,151.554,-733.363,0,0
249498.825,140.102,-719.962,0,0
250800,130.741,-704.518,0,0
252102,124.725,-687.158,0,0
253404,122.234,-670.837,0,0
254705,121.113,-655.355,0,0
256007,121.729,-639.559,0,0
257309,125.859,-624.716,0,0
258610,131.576,-612.352,0,0
259912,138.398,-601.395,0,0
261213,147.086,-592.737,0,0
262515,156.074,-587.042,0,0
263817,164.874,-584.068,0,0
265118,172.27,-583.595,0,0
266420,177.403,-584.487,0,0
267721.55,181.2,-585.752,0,0
269023.175,182.656,-587.354,0,0
270324.8,182.463,-586.335,0,0
271626.425,184.48,-582.778,0,0
272928.05,189.683,-579.566,0,0
274229.675,198.87,-578.787,0,0
275531.3,211.076,-585.229,0,0
276832.925,217.02,-602.044,0,0
278134.55,210.942,-618.078,0,0
279436.175,200.259,-628.755,0,0
280737.8,187.273,-635.049,0,0
282039.425,174.272,-637.732,0,0
283341,159.226,-637.083,0,0
284643,148.161,-631.558,0,0
285944,135.911,-627.963,0,0
287246,121.985,-617.196,0,0
288548,114.222,-600.501,0,0
289849,115.408,-581.311,0,0
291151,126.651,-567.774,0,0
292452,142.197,-565.797,0,0
293754,149.158,-575.215,0,0
295056,146.22,-579.848,0,0
296357,147.661,-579.916,0,0
297659,149.166,-589.45,0,0
298960.525,139.975,-596.567,0,0
300262.15,129.935,-597.754,0,0
301563.775,121.185,-594.628,0,0
302865.4,116.916,-591.07,0,0
304167.025,112.814,-590.905,0,0
305468.65,105.65,-591.064,0,0
306770.275,96.9438,-588.551,0,0
308071.9,88.9251,-583.636,0,0
309373.525,82.483,-577.386,0,0
310675.15,77.4884,-571.099,0,0
311976.775,73.0298,-564.809,0,0
313278.4,69.2193,-558.228,0,0
314580,66.2221,-551.729,0,0
315882,63.696,-545.404,0,0
317183,61.591,-538.936,0,0
318485,60.2919,-532.673,0,0
319787,59.2848,-526.998,0,0
321088,58.3267,-521.46,0,0
322390,57.3178,-515.875,0,0
323691,56.5588,-510.055,0,0
324993,56.5252,-503.438,0,0
326295,58.6153,-496.976,0,0
327596,62.031,-492.916,0,0
328898,64.307,-490.684,0,0
330200,65.9144,-488.995,0,0
331501.125,66.8447,-488.26,0,0
332802.75,66.1606,-488.071,0,0
334104.375,63.8381,-486.944,0,0
335406.0,61.2956,-484.249,0,0
336707.625,59.2594,-480.903,0,0
338009.25,57.5084,-477.109,0,0
339310.875,56.1773,-473.189,0,0
340612.5,55.1297,-468.885,0,0
341914.125,54.5541,-464.484,0,0
343215.75,54.3632,-460.126,0,0
344517.375,54.6111,-455.768,0,0
345819.0,55.3833,-451.469,0,0
347121,56.5052,-447.597,0,0
348422,57.8994,-444.097,0,0
349724,59.5184,-440.998,0,0
351025,61.2385,-438.446,0,0
352327,62.6352,-436.399,0,0
353629,63.7358,-434.427,0,0
354930,64.8005,-432.277,0,0
356232,66.1701,-430.301,0,0
357534,67.7326,-428.555,0,0
358835,69.5285,-427.52,0,0
360137,71.0077,-427.351,0,0
361438,71.6202,-427.628,0,0
362740.1,71.4315,-427.788,0,0
364041.725,70.7443,-427.628,0,0
365343.35,69.792,-427.08,0,0
366644.975,68.6437,-426.084,0,0
367946.6,67.7944,-424.432,0,0
369248.225,67.8037,-423.23,0,0
370549.85,67.3579,-422.977,0,0
371851.475,65.9847,-422.333,0,0
373153.1,64.7087,-421.262,0,0
374454.725,63.5629,-420.17,0,0
375756.35,62.044,-419.191,0,0
377057.975,60.4336,-417.872,0,0
378359.6,58.8965,-416.688,0,0
379661,56.143,-415.478,0,0
380963,53.5495,-411.876,0,0
382264,53.5823,-408.891,0,0
383566,52.6692,-407.7,0,0
384868,50.5716,-405.95,0,0
386169,48.3404,-403.218,0,0
387471,46.7212,-399.802,0,0
388773,45.6881,-396.362,0,0
390074,45.2389,-392.862,0,0
391376,45.3598,-390.047,0,0
392677,44.926,-388.182,0,0
393979,43.326,-385.863,0,0
395280.7,41.7416,-382.384,0,0
396582.325,40.9009,-378.344,0,0
397883.95,40.8198,-374.28,0,0
399185.575,41.2945,-370.463,0,0
400006.6,41.7132,-368.28,0,0