Folder: ML_Dmg_Mehdi_Dataset/Accelerated corrosion test data/2025-10-23_06-00-04 (part 4)

File: sample_8.csv
Frequency (Hz),Impedance (ohms),Phase (Radians),Temperature (C),Humidity (%)
10000.0,301.853,-11010.8,0,0
11301.625,267.705,-9757.3,0,0
12603.25,247.457,-8762.27,0,0
13904.875,219.328,-7958.53,0,0
15206.5,199.63,-7282.01,0,0
16508.125,184.424,-6713.38,0,0
17809.75,171.938,-6224.92,0,0
19111.375,164.021,-5800.6,0,0
20413.0,157.956,-5437.94,0,0
21714.625,146.332,-5117.12,0,0
23016.25,141.928,-4833.23,0,0
24317.875,129.608,-4575.03,0,0
25619.5,123.264,-4341.4,0,0
26921.1,118.413,-4129.51,0,0
28222.7,115.418,-3939.74,0,0
29524.4,111.89,-3766.3,0,0
30826,107.678,-3607.89,0,0
32127.6,104.045,-3459.31,0,0
33429.2,104.025,-3321.61,0,0
34730.9,105.607,-3196.9,0,0
36032.5,109.116,-3086.56,0,0
37334.1,104.803,-2987.17,0,0
38635.7,94.0824,-2889.76,0,0
39937.4,86.2896,-2792.04,0,0
41239,84.0436,-2701.47,0,0
42540.6,81.2375,-2616.31,0,0
43842.225,80.052,-2538.62,0,0
45143.85,75.9696,-2463.86,0,0
46445.475,73.264,-2392.34,0,0
47747.1,71.1708,-2324.73,0,0
49048.725,69.2682,-2260.95,0,0
50350.35,67.6324,-2199.92,0,0
51651.975,66.4625,-2141.58,0,0
52953.6,66.1861,-2086.63,0,0
54255.225,65.0028,-2036.43,0,0
55556.85,62.1591,-1986.92,0,0
56858.475,60.051,-1937.89,0,0
58160.1,59.3187,-1891.37,0,0
59461.7,58.3024,-1847.4,0,0
60763.3,57.2571,-1804.37,0,0
62065,56.7269,-1763.43,0,0
63366.6,57.5061,-1724.19,0,0
64668.2,57.0475,-1687.78,0,0
65969.8,56.4782,-1652.31,0,0
67271.5,54.8203,-1617.66,0,0
68573.1,53.6043,-1583.78,0,0
69874.7,53.5094,-1550.51,0,0
71176.3,53.4437,-1519.13,0,0
72478,53.1978,-1489.53,0,0
73779.6,52.3702,-1460.04,0,0
75081.2,51.663,-1431.29,0,0
76382.825,51.3913,-1403.25,0,0
77684.45,50.9307,-1376.43,0,0
78986.075,50.266,-1350.06,0,0
80287.7,49.6894,-1323.78,0,0
81589.325,49.979,-1297.9,0,0
82890.95,50.8373,-1272.95,0,0
84192.575,52.1566,-1249.76,0,0
85494.2,51.2643,-1227.38,0,0
86795.825,51.3693,-1203.68,0,0
88097.45,52.0521,-1180.97,0,0
89399.075,52.7352,-1158.18,0,0
90700.7,55.3306,-1135.17,0,0
92002.3,58.8416,-1115.79,0,0
93303.9,60.6423,-1095.69,0,0
94605.6,63.0396,-1077.1,0,0
95907.2,64.5846,-1057.71,0,0
97208.8,68.0195,-1038.21,0,0
98510.4,73.2304,-1019.94,0,0
99812.1,77.9508,-1004.64,0,0
101114,83.5696,-990.644,0,0
102415,86.6958,-979.881,0,0
103717,87.407,-968.317,0,0
105019,85.9441,-956.756,0,0
106320.175,85.1305,-942.231,0,0
107621.8,84.9273,-928.865,0,0
108923.425,85.0634,-913.54,0,0
110225.05,86.8331,-900.396,0,0
111526.675,87.6016,-887.778,0,0
112828.3,88.3207,-875.827,0,0
114129.925,88.1773,-863.883,0,0
115431.55,88.183,-852.21,0,0
116733.175,86.6486,-839.892,0,0
118034.8,86.7697,-827.131,0,0
119336.425,86.3918,-815.104,0,0
120638.05,85.4838,-802.639,0,0
121939.675,85.5316,-790.286,0,0
123241,85.0244,-778.65,0,0
124543,83.7351,-766.508,0,0
125845,82.1933,-753.767,0,0
127146,81.0869,-740.141,0,0
128448,80.6436,-726.077,0,0
129749,80.3894,-712.191,0,0
131051,81.6607,-697.548,0,0
132353,82.7864,-684.645,0,0
133654,83.1322,-671.472,0,0
134956,84.4212,-657.02,0,0
136258,86.6339,-644.318,0,0
137559,86.2573,-631.575,0,0
138860.775,86.3184,-615.541,0,0
140162.4,88.5631,-599.893,0,0
141464.025,90.9283,-584.188,0,0
142765.65,93.6178,-566.962,0,0
144067.275,98.4051,-549.611,0,0
145368.9,104.785,-531.329,0,0
146670.525,113.486,-513.59,0,0
147972.15,122.467,-497.786,0,0
149273.775,133.337,-478.429,0,0
150575.4,152.279,-458.359,0,0
151877.025,179.113,-450.136,0,0
153178.65,198.196,-452.667,0,0
154480,209.83,-454.24,0,0
155782,224.874,-456.261,0,0
157084,223.658,-468.818,0,0
158385,221.629,-460.019,0,0
159687,227.697,-459.258,0,0
160988,219.216,-455.767,0,0
162290,224.369,-438.512,0,0
163592,234.607,-433.821,0,0
164893,241.197,-431.618,0,0
166195,240.704,-434.809,0,0
167497,229.801,-429.707,0,0
168798,220.355,-416.368,0,0
170100,215.161,-394.491,0,0
171401.375,214.977,-370.026,0,0
172703.0,222.864,-342.502,0,0
174004.625,235.172,-319.324,0,0
175306.25,245.212,-296.701,0,0
176607.875,260.968,-268.523,0,0
177909.5,278.453,-239.326,0,0
179211.125,309.861,-205.192,0,0
180512.75,350.96,-181.049,0,0
181814.375,396.832,-160.365,0,0
183116.0,453.903,-158.12,0,0
184417.625,491.555,-162.539,0,0
185719.25,542.39,-164.718,0,0
187021,589.455,-179.559,0,0
188322,630.84,-199.09,0,0
189624,664.555,-220.229,0,0
190926,702.378,-232.481,0,0
192227,743.169,-259.558,0,0
193529,787.177,-267.892,0,0
194831,864.812,-299.143,0,0
196132,944.674,-373.346,0,0
197434,994.56,-486.595,0,0
198735,996.457,-625.917,0,0
200037,933.199,-744.079,0,0
201339,855.673,-813.83,0,0
202640.35,761.305,-865.739,0,0
203941.975,678.239,-862.288,0,0
205243.6,614.715,-850.623,0,0
206545.225,569.782,-817.634,0,0
207846.85,555.229,-789.503,0,0
209148.475,549.221,-775.911,0,0
210450.1,547.621,-763.38,0,0
211751.725,555.892,-762.277,0,0
213053.35,561.128,-775.163,0,0
214354.975,558.107,-793.168,0,0
215656.6,550.505,-813.06,0,0
216958.225,535.753,-833.012,0,0
218259.85,517.266,-854.106,0,0
219561,488.429,-871.349,0,0
220863,454.751,-878.904,0,0
222165,424.532,-874.696,0,0
223466,402.644,-864.909,0,0
224768,389.467,-857.173,0,0
226070,380.569,-856.879,0,0
227371,366.273,-861.73,0,0
228673,348.848,-862.632,0,0
229974,332.246,-866.838,0,0
231276,308.706,-870.342,0,0
232578,282.136,-868.325,0,0
233879,253.316,-860.461,0,0
235180.95,227.244,-843.463,0,0
236482.575,208.823,-822.168,0,0
237784.2,196.446,-800.737,0,0
239085.825,190.19,-779.166,0,0
240387.45,189.7,-763.337,0,0
241689.075,188.808,-754.005,0,0
242990.7,183.202,-745.667,0,0
244292.325,176.729,-735.034,0,0
245593.95,171.888,-722.96,0,0
246895.575,170.432,-711.172,0,0
248197.2,168.27,-701.574,0,0
249498.825,166.585,-691.565,0,0
250800,165.949,-681.044,0,0
252102,168.615,-671.648,0,0
253404,172.126,-667.115,0,0
254705,171.412,-665.487,0,0
256007,166.224,-661.72,0,0
257309,160.985,-653.335,0,0
258610,158.853,-642.185,0,0
259912,161.265,-631.207,0,0
261213,165.097,-623.386,0,0
262515,168.307,-617.462,0,0
263817,171.073,-610.144,0,0
265118,175.104,-601.527,0,0
266420,184.182,-591.282,0,0
267721.55,200.453,-585.13,0,0
269023.175,219.763,-588.34,0,0
270324.8,238.134,-600.28,0,0
271626.425,250.18,-623.08,0,0
272928.05,250.949,-651.95,0,0
274229.675,234.126,-680.506,0,0
275531.3,206.674,-694.672,0,0
276832.925,179.872,-696.025,0,0
278134.55,157.757,-689.684,0,0
279436.175,140.129,-678.183,0,0
280737.8,129.962,-664.113,0,0
282039.425,125.481,-652.316,0,0
283341,122.864,-644.119,0,0
284643,120.079,-636.341,0,0
285944,120.144,-628.715,0,0
287246,123.482,-624.634,0,0
288548,125.451,-628.442,0,0
289849,118.713,-634.482,0,0
291151,107.165,-634.357,0,0
292452,96.4013,-630.613,0,0
293754,86.3709,-624.027,0,0
295056,78.4043,-615.133,0,0
296357,73.026,-605.816,0,0
297659,68.8559,-597.005,0,0
298960.525,65.5277,-588.025,0,0
300262.15,63.4841,-578.721,0,0
301563.775,63.0987,-569.756,0,0
302865.4,64.1168,-561.851,0,0
304167.025,65.8511,-555.242,0,0
305468.65,68.0708,-549.945,0,0
306770.275,70.0384,-546.128,0,0
308071.9,71.736,-543.169,0,0
309373.525,72.2165,-541.791,0,0
310675.15,71.214,-539.575,0,0
311976.775,70.4698,-537.159,0,0
313278.4,69.0358,-534.893,0,0
314580,67.2756,-532.073,0,0
315882,65.4896,-529.007,0,0
317183,64.0466,-525.294,0,0
318485,62.7014,-521.744,0,0
319787,62.0507,-517.891,0,0
321088,61.7361,-514.922,0,0
322390,61.13,-512.523,0,0
323691,59.8961,-510.578,0,0
324993,57.7764,-508.311,0,0
326295,55.413,-505.204,0,0
327596,53.4329,-501.631,0,0
328898,51.6329,-498.046,0,0
330200,49.8958,-494.253,0,0
331501.125,48.1908,-490.155,0,0
332802.75,46.7848,-485.728,0,0
334104.375,46.0773,-481.048,0,0
335406.0,46.2528,-476.689,0,0
336707.625,46.6423,-473.243,0,0
338009.25,46.6184,-470.499,0,0
339310.875,45.9373,-467.811,0,0
340612.5,44.9172,-464.833,0,0
341914.125,43.7246,-461.488,0,0
343215.75,42.6734,-457.728,0,0
344517.375,41.8403,-453.657,0,0
345819.0,41.5312,-449.393,0,0
347121,41.592,-445.192,0,0
348422,41.9207,-441.225,0,0
349724,42.5178,-437.266,0,0
351025,43.5725,-433.525,0,0
352327,44.8238,-430.356,0,0
353629,46.0374,-427.552,0,0
354930,47.0966,-425.06,0,0
356232,48.0656,-422.774,0,0
357534,48.7815,-420.68,0,0
358835,49.3581,-418.519,0,0
360137,49.9241,-416.437,0,0
361438,50.5482,-414.449,0,0
362740.1,51.0467,-412.582,0,0
364041.725,51.4037,-410.808,0,0
365343.35,51.6409,-409.011,0,0
366644.975,51.7475,-407.214,0,0
367946.6,51.7522,-405.216,0,0
369248.225,51.963,-402.918,0,0
370549.85,52.8435,-400.791,0,0
371851.475,53.8677,-399.573,0,0
373153.1,54.3024,-398.911,0,0
374454.725,53.9097,-398.389,0,0
375756.35,52.8045,-397.247,0,0
377057.975,52.0929,-395.384,0,0
378359.6,51.5106,-393.904,0,0
379661,50.2176,-391.954,0,0
380963,49.9606,-389.011,0,0
382264,50.6759,-387.402,0,0
383566,50.2767,-386.609,0,0
384868,48.9167,-385.517,0,0
386169,47.2185,-383.565,0,0
387471,45.6474,-380.938,0,0
388773,44.5561,-377.766,0,0
390074,44.0968,-374.523,0,0
391376,43.9527,-371.606,0,0
392677,43.7756,-368.837,0,0
393979,43.5547,-366.004,0,0
395280.7,43.5712,-362.971,0,0
396582.325,43.8874,-360.059,0,0
397883.95,44.2404,-357.376,0,0
399185.575,44.6536,-354.752,0,0
400006.6,44.8078,-353.153,0,0