Folder: ML_Dmg_Mehdi_Dataset/Accelerated corrosion test data/2025-10-05_18-00-02 (part 3)

File: sample_6.csv
Frequency (Hz),Impedance (ohms),Phase (Radians),Temperature (C),Humidity (%)
10000.0,4252.71,-6479.06,0,0
11301.625,3625.39,-6112.79,0,0
12603.25,3124.99,-5760.29,0,0
13904.875,2718.73,-5436.14,0,0
15206.5,2385.81,-5131.22,0,0
16508.125,2110.7,-4852.56,0,0
17809.75,1880.96,-4596.75,0,0
19111.375,1688.95,-4360.91,0,0
20413.0,1522.94,-4148.36,0,0
21714.625,1380.95,-3950.56,0,0
23016.25,1263.38,-3764.12,0,0
24317.875,1156.83,-3605.33,0,0
25619.5,1063.29,-3451.16,0,0
26921.1,980.901,-3307.38,0,0
28222.7,910.968,-3175.94,0,0
29524.4,846.218,-3050.5,0,0
30826,791.747,-2936.59,0,0
32127.6,742.11,-2826.5,0,0
33429.2,703.879,-2726.88,0,0
34730.9,663.516,-2640.25,0,0
36032.5,626.37,-2558.13,0,0
37334.1,588.25,-2476.95,0,0
38635.7,554.734,-2397.38,0,0
39937.4,527.468,-2321.36,0,0
41239,502.142,-2252.07,0,0
42540.6,479.219,-2187.74,0,0
43842.225,458.925,-2120.8,0,0
45143.85,443.848,-2059.16,0,0
46445.475,433.537,-2005.2,0,0
47747.1,422.399,-1957.68,0,0
49048.725,410.33,-1917.51,0,0
50350.35,389.211,-1881.54,0,0
51651.975,366.221,-1836.58,0,0
52953.6,349.845,-1791.68,0,0
54255.225,332.325,-1750.09,0,0
55556.85,316.173,-1708.02,0,0
56858.475,303.841,-1661.88,0,0
58160.1,298.861,-1623.9,0,0
59461.7,289.22,-1590.95,0,0
60763.3,276.96,-1557.4,0,0
62065,264.501,-1521.47,0,0
63366.6,260.727,-1483.65,0,0
64668.2,254.605,-1458.36,0,0
65969.8,245.516,-1428.69,0,0
67271.5,234.298,-1399.78,0,0
68573.1,225.118,-1366.58,0,0
69874.7,219.492,-1334.21,0,0
71176.3,216.858,-1302.94,0,0
72478,216.729,-1274.61,0,0
73779.6,216.963,-1250.51,0,0
75081.2,215.412,-1227.55,0,0
76382.825,214.058,-1206.13,0,0
77684.45,212.155,-1185.6,0,0
78986.075,209.646,-1166.31,0,0
80287.7,206.381,-1147.51,0,0
81589.325,202.364,-1128.71,0,0
82890.95,197.974,-1109.66,0,0
84192.575,193.632,-1089.58,0,0
85494.2,191.035,-1068.77,0,0
86795.825,190.331,-1049.6,0,0
88097.45,188.87,-1031.75,0,0
89399.075,188.7,-1013.35,0,0
90700.7,189.772,-997.792,0,0
92002.3,187.615,-983.601,0,0
93303.9,186.335,-967.972,0,0
94605.6,186.056,-950.724,0,0
95907.2,188.525,-937.576,0,0
97208.8,187.962,-927.371,0,0
98510.4,186.498,-913.078,0,0
99812.1,190.27,-903.576,0,0
101114,186.657,-897.815,0,0
102415,180.962,-887.927,0,0
103717,174.194,-879.772,0,0
105019,162.621,-868.127,0,0
106320.175,151.702,-847.737,0,0
107621.8,149.644,-824.877,0,0
108923.425,152.213,-806.096,0,0
110225.05,154.564,-789.989,0,0
111526.675,158.22,-774.272,0,0
112828.3,162.767,-761.145,0,0
114129.925,167.661,-749.863,0,0
115431.55,171.768,-740.604,0,0
116733.175,176.788,-733.606,0,0
118034.8,175.494,-729.49,0,0
119336.425,173.052,-718.618,0,0
120638.05,177.829,-707.179,0,0
121939.675,179.157,-706.9,0,0
123241,174.25,-699.851,0,0
124543,171.439,-691.75,0,0
125845,168.153,-682.814,0,0
127146,164.847,-672.856,0,0
128448,163.761,-660.706,0,0
129749,165.625,-651.845,0,0
131051,165.114,-645.21,0,0
132353,162.907,-638.365,0,0
133654,159.129,-631.113,0,0
134956,154.073,-621.534,0,0
136258,149.567,-609.819,0,0
137559,146.746,-596.889,0,0
138860.775,145.253,-583.658,0,0
140162.4,145.029,-570.101,0,0
141464.025,146.575,-556.703,0,0
142765.65,148.605,-545.029,0,0
144067.275,150.803,-532.701,0,0
145368.9,155.315,-522.412,0,0
146670.525,157.057,-514.529,0,0
147972.15,156.899,-505.282,0,0
149273.775,156.378,-493.654,0,0
150575.4,156.997,-479.663,0,0
151877.025,160.791,-463.457,0,0
153178.65,171.46,-450.721,0,0
154480,178.131,-444.6,0,0
155782,182.697,-434.171,0,0
157084,192.625,-426.786,0,0
158385,197.045,-424.491,0,0
159687,198.128,-419.288,0,0
160988,199.371,-411.875,0,0
162290,200.219,-404.519,0,0
163592,200.705,-395.141,0,0
164893,200.726,-384.497,0,0
166195,202.918,-371.101,0,0
167497,206.779,-358.797,0,0
168798,211.126,-345.912,0,0
170100,216.586,-333.565,0,0
171401.375,221.615,-320.811,0,0
172703.0,227.254,-307.416,0,0
174004.625,232.861,-293.411,0,0
175306.25,238.326,-276.975,0,0
176607.875,246.334,-257.871,0,0
177909.5,257.828,-236.828,0,0
179211.125,274.035,-214.523,0,0
180512.75,296.471,-194.669,0,0
181814.375,321.621,-179.109,0,0
183116.0,347.903,-168.168,0,0
184417.625,373.228,-159.079,0,0
185719.25,397.116,-153.336,0,0
187021,416.122,-146.391,0,0
188322,432.997,-129.835,0,0
189624,459.526,-103.373,0,0
190926,504.437,-72.9622,0,0
192227,568.272,-54.1206,0,0
193529,639.275,-49.6631,0,0
194831,721.28,-60.3022,0,0
196132,803.784,-96.0205,0,0
197434,878.513,-150.338,0,0
198735,942.392,-218.414,0,0
200037,997.528,-302.312,0,0
201339,1038.2,-402.737,0,0
202640.35,1052.02,-523.333,0,0
203941.975,1022.53,-638.588,0,0
205243.6,969.822,-732.07,0,0
206545.225,903.622,-803.121,0,0
207846.85,834.257,-851.021,0,0
209148.475,770.11,-882.524,0,0
210450.1,713.293,-906.832,0,0
211751.725,655.2,-932.807,0,0
213053.35,586.481,-945.537,0,0
214354.975,523.457,-940.539,0,0
215656.6,470.344,-925.876,0,0
216958.225,427.053,-907.68,0,0
218259.85,390.159,-888.011,0,0
219561,358.623,-867.212,0,0
220863,331.821,-845.836,0,0
222165,308.847,-823.687,0,0
223466,289.879,-800.223,0,0
224768,276.557,-775.957,0,0
226070,269.799,-753.312,0,0
227371,268.822,-736.227,0,0
228673,267.361,-727.571,0,0
229974,260.327,-721.793,0,0
231276,249.583,-713.596,0,0
232578,238.999,-701.901,0,0
233879,230.429,-688.005,0,0
235180.95,224.732,-673.364,0,0
236482.575,221.223,-659.111,0,0
237784.2,219.548,-645.757,0,0
239085.825,219.266,-633.053,0,0
240387.45,220.195,-621.278,0,0
241689.075,222.264,-610.082,0,0
242990.7,225.537,-599.563,0,0
244292.325,230.28,-589.683,0,0
245593.95,236.649,-580.697,0,0
246895.575,245.176,-572.565,0,0
248197.2,256.972,-567.418,0,0
249498.825,269.374,-567.275,0,0
250800,279.639,-569.295,0,0
252102,292.557,-572.56,0,0
253404,306.988,-583.751,0,0
254705,315.989,-603.039,0,0
256007,315.709,-625.631,0,0
257309,306.723,-646.368,0,0
258610,292.295,-662.35,0,0
259912,274.907,-673.555,0,0
261213,255.883,-679.807,0,0
262515,237.501,-681.326,0,0
263817,221.071,-679.666,0,0
265118,206.162,-676.274,0,0
266420,192.696,-671.419,0,0
267721.55,180.868,-665.571,0,0
269023.175,170.427,-659.331,0,0
270324.8,160.925,-652.896,0,0
271626.425,152.257,-646.248,0,0
272928.05,144.248,-639.344,0,0
274229.675,136.932,-632.172,0,0
275531.3,130.341,-624.736,0,0
276832.925,124.526,-617.244,0,0
278134.55,119.316,-609.684,0,0
279436.175,114.791,-601.962,0,0
280737.8,111.49,-594.163,0,0
282039.425,109.147,-587.431,0,0
283341,106.57,-581.338,0,0
284643,104.224,-575.172,0,0
285944,102.521,-569.379,0,0
287246,100.86,-564.546,0,0
288548,98.6611,-559.657,0,0
289849,96.8035,-554.615,0,0
291151,95.2133,-549.961,0,0
292452,93.7425,-545.698,0,0
293754,92.0625,-541.924,0,0
295056,89.6508,-538.39,0,0
296357,86.6903,-534.196,0,0
297659,83.8318,-528.928,0,0
298960.525,82.2541,-522.993,0,0
300262.15,81.875,-518.063,0,0
301563.775,81.3228,-513.958,0,0
302865.4,80.529,-510.133,0,0
304167.025,79.5249,-506.269,0,0
305468.65,78.8155,-502.165,0,0
306770.275,78.8183,-498.631,0,0
308071.9,78.3995,-496.152,0,0
309373.525,77.2119,-493.616,0,0
310675.15,75.9086,-490.848,0,0
311976.775,74.3278,-488.023,0,0
313278.4,72.6353,-485.033,0,0
314580,71.0146,-481.719,0,0
315882,69.5459,-478.451,0,0
317183,68.2099,-475.225,0,0
318485,66.7734,-471.933,0,0
319787,65.3114,-468.604,0,0
321088,63.8805,-465.183,0,0
322390,62.7023,-461.551,0,0
323691,61.7415,-458.168,0,0
324993,60.6997,-454.843,0,0
326295,59.6539,-451.556,0,0
327596,58.6074,-448.163,0,0
328898,57.6873,-444.805,0,0
330200,56.8291,-441.347,0,0
331501.125,56.0686,-437.932,0,0
332802.75,55.3682,-434.564,0,0
334104.375,54.7271,-431.167,0,0
335406.0,54.3479,-427.828,0,0
336707.625,54.0215,-424.635,0,0
338009.25,53.7119,-421.541,0,0
339310.875,53.2508,-418.441,0,0
340612.5,52.9945,-415.27,0,0
341914.125,52.9098,-412.186,0,0
343215.75,53.0898,-409.288,0,0
344517.375,53.1551,-407.078,0,0
345819.0,52.4733,-404.796,0,0
347121,51.8281,-401.997,0,0
348422,51.3642,-399.016,0,0
349724,51.1192,-396.095,0,0
351025,50.9627,-393.261,0,0
352327,50.9358,-390.444,0,0
353629,51.0207,-387.83,0,0
354930,50.9976,-385.378,0,0
356232,50.8325,-382.925,0,0
357534,50.7114,-380.322,0,0
358835,50.8676,-377.813,0,0
360137,50.9704,-375.568,0,0
361438,50.897,-373.524,0,0
362740.1,50.6029,-371.343,0,0
364041.725,50.2486,-369.07,0,0
365343.35,49.944,-366.654,0,0
366644.975,49.8084,-364.203,0,0
367946.6,49.6552,-361.79,0,0
369248.225,49.5638,-359.358,0,0
370549.85,49.576,-356.938,0,0
371851.475,49.7033,-354.587,0,0
373153.1,50.0095,-352.45,0,0
374454.725,50.1398,-350.77,0,0
375756.35,49.7625,-349.099,0,0
377057.975,49.1983,-347.046,0,0
378359.6,48.6451,-344.942,0,0
379661,48.0778,-342.653,0,0
380963,47.475,-340.053,0,0
382264,47.1977,-337.23,0,0
383566,47.539,-334.568,0,0
384868,47.5549,-332.627,0,0
386169,47.1887,-330.412,0,0
387471,46.8087,-327.951,0,0
388773,46.5568,-325.377,0,0
390074,46.4032,-322.768,0,0
391376,46.3274,-320.105,0,0
392677,46.306,-317.468,0,0
393979,46.3439,-314.821,0,0
395280.7,46.4225,-312.165,0,0
396582.325,46.5774,-309.481,0,0
397883.95,46.7662,-306.768,0,0
399185.575,46.9785,-304.068,0,0
400006.6,47.1654,-302.385,0,0

File: sample_7.csv
Frequency (Hz),Impedance (ohms),Phase (Radians),Temperature (C),Humidity (%)
10000.0,275.948,-12040.2,0,0
11301.625,248.109,-10651.3,0,0
12603.25,263.356,-9612.25,0,0
13904.875,209.849,-8716.74,0,0
15206.5,199.999,-7978.22,0,0
16508.125,173.259,-7342,0,0
17809.75,169.95,-6789.29,0,0
19111.375,185.549,-6357.08,0,0
20413.0,169.495,-5952.19,0,0
21714.625,154.979,-5612.82,0,0
23016.25,132.041,-5295.45,0,0
24317.875,124.106,-5003.87,0,0
25619.5,120.443,-4740.93,0,0
26921.1,125.085,-4497.78,0,0
28222.7,181.551,-4293.36,0,0
29524.4,136.661,-4151.39,0,0
30826,135.914,-3971.16,0,0
32127.6,118.791,-3825.41,0,0
33429.2,103.221,-3674.31,0,0
34730.9,93.8346,-3530.47,0,0
36032.5,89.7008,-3397.43,0,0
37334.1,87.4774,-3274.62,0,0
38635.7,87.7897,-3158.3,0,0
39937.4,98.7244,-3058.09,0,0
41239,88.1152,-2970.99,0,0
42540.6,81.2888,-2875.61,0,0
43842.225,80.7752,-2787.61,0,0
45143.85,81.6575,-2710.4,0,0
46445.475,78.9104,-2636.67,0,0
47747.1,72.1062,-2561.82,0,0
49048.725,69.5534,-2491.97,0,0
50350.35,67.4652,-2425.08,0,0
51651.975,65.9332,-2361.84,0,0
52953.6,64.8321,-2301.43,0,0
54255.225,63.5915,-2244.89,0,0
55556.85,62.5065,-2190.18,0,0
56858.475,61.7934,-2138.17,0,0
58160.1,60.8922,-2087.99,0,0
59461.7,61.0488,-2041.03,0,0
60763.3,60.696,-1997.16,0,0
62065,58.5843,-1954.03,0,0
63366.6,57.4219,-1911.53,0,0
64668.2,56.5752,-1870.99,0,0
65969.8,56.625,-1832.84,0,0
67271.5,54.789,-1796.11,0,0
68573.1,53.5952,-1759.31,0,0
69874.7,53.2822,-1724.17,0,0
71176.3,52.9437,-1690.97,0,0
72478,51.8498,-1658.71,0,0
73779.6,50.9883,-1627.02,0,0
75081.2,50.4934,-1596.34,0,0
76382.825,50.0186,-1566.66,0,0
77684.45,49.7175,-1537.87,0,0
78986.075,49.4154,-1510.06,0,0
80287.7,49.2922,-1483.08,0,0
81589.325,48.9509,-1456.87,0,0
82890.95,48.8489,-1431.31,0,0
84192.575,48.8212,-1406.38,0,0
85494.2,49.0598,-1382.46,0,0
86795.825,48.9877,-1359.12,0,0
88097.45,49.2014,-1336.29,0,0
89399.075,49.1513,-1314.09,0,0
90700.7,49.3623,-1292.06,0,0
92002.3,49.8128,-1270.97,0,0
93303.9,50.0359,-1249.73,0,0
94605.6,52.9126,-1230.23,0,0
95907.2,51.6364,-1212.66,0,0
97208.8,51.308,-1192.68,0,0
98510.4,52.1653,-1173.35,0,0
99812.1,51.7767,-1155.17,0,0
101114,53.2163,-1136.01,0,0
102415,54.8035,-1118.04,0,0
103717,57.3999,-1101.12,0,0
105019,58.7859,-1086.34,0,0
106320.175,58.3583,-1070.57,0,0
107621.8,59.3957,-1054.03,0,0
108923.425,60.4527,-1038.46,0,0
110225.05,60.7426,-1022.15,0,0
111526.675,63.6072,-1005.15,0,0
112828.3,67.5824,-989.185,0,0
114129.925,72.6814,-975.435,0,0
115431.55,77.978,-962.885,0,0
116733.175,85.5459,-953.394,0,0
118034.8,88.6156,-948.197,0,0
119336.425,91.1057,-944.357,0,0
120638.05,85.3042,-942.755,0,0
121939.675,75.3592,-932.265,0,0
123241,69.4378,-919.455,0,0
124543,64.9459,-905.079,0,0
125845,61.3531,-891.81,0,0
127146,58.128,-877.055,0,0
128448,56.6073,-861.953,0,0
129749,55.5384,-847.619,0,0
131051,54.5566,-832.974,0,0
132353,53.7552,-818.017,0,0
133654,54.5048,-802.402,0,0
134956,57.8987,-787.606,0,0
136258,62.4604,-775.012,0,0
137559,63.2207,-767.174,0,0
138860.775,61.7117,-755.451,0,0
140162.4,61.7156,-741.801,0,0
141464.025,62.2156,-728.905,0,0
142765.65,63.1821,-715.119,0,0
144067.275,65.5139,-701.809,0,0
145368.9,67.0202,-689.448,0,0
146670.525,68.2491,-676.096,0,0
147972.15,69.8611,-662.931,0,0
149273.775,71.2397,-649.572,0,0
150575.4,72.2157,-634.121,0,0
151877.025,74.6822,-616.896,0,0
153178.65,79.8455,-598.91,0,0
154480,86.867,-581.302,0,0
155782,96.7091,-564.187,0,0
157084,108.668,-549.458,0,0
158385,120.863,-537.887,0,0
159687,128.684,-528.9,0,0
160988,132.415,-512.946,0,0
162290,143.445,-488.744,0,0
163592,163.223,-466.029,0,0
164893,190.08,-447.749,0,0
166195,220.463,-430.067,0,0
167497,268.229,-419.17,0,0
168798,320.682,-429.846,0,0
170100,363.315,-460.945,0,0
171401.375,396.068,-508.519,0,0
172703.0,405.487,-563.648,0,0
174004.625,380.768,-614.548,0,0
175306.25,340.382,-632.277,0,0
176607.875,321.603,-621.549,0,0
177909.5,329.237,-626.35,0,0
179211.125,327.168,-663.756,0,0
180512.75,292.72,-683.413,0,0
181814.375,254.057,-694.416,0,0
183116.0,212.103,-683.478,0,0
184417.625,184.867,-658.696,0,0
185719.25,169.859,-635.999,0,0
187021,155.627,-610.028,0,0
188322,153.262,-585.278,0,0
189624,147.52,-569.883,0,0
190926,140.886,-546.208,0,0
192227,141.427,-520.975,0,0
193529,144.483,-496.33,0,0
194831,152.216,-471.934,0,0
196132,163.77,-450.913,0,0
197434,176.392,-431.422,0,0
198735,189.305,-412.814,0,0
200037,204.609,-392.707,0,0
201339,225.665,-372.608,0,0
202640.35,251.949,-353.876,0,0
203941.975,284.877,-340.568,0,0
205243.6,321.365,-335.449,0,0
206545.225,359.851,-342.438,0,0
207846.85,383.9,-353.943,0,0
209148.475,413.993,-351.515,0,0
210450.1,466.681,-369.672,0,0
211751.725,502.306,-419.432,0,0
213053.35,509.681,-467.825,0,0
214354.975,504.963,-511.15,0,0
215656.6,489.239,-541.187,0,0
216958.225,478.229,-568.424,0,0
218259.85,454.219,-593.467,0,0
219561,423.481,-605.331,0,0
220863,396.786,-598.668,0,0
222165,385.125,-584.618,0,0
223466,384.712,-573.748,0,0
224768,388.922,-566.211,0,0
226070,400.881,-559.35,0,0
227371,419.239,-567.314,0,0
228673,435.896,-583.373,0,0
229974,444.377,-612.904,0,0
231276,440.701,-646.778,0,0
232578,424.045,-675.734,0,0
233879,398.665,-705.716,0,0
235180.95,353.45,-718.705,0,0
236482.575,317.787,-709.215,0,0
237784.2,292.098,-698.369,0,0
239085.825,271.225,-676.806,0,0
240387.45,268.411,-658.045,0,0
241689.075,263.324,-653.878,0,0
242990.7,249.755,-644.397,0,0
244292.325,243.746,-625.23,0,0
245593.95,250.817,-610.863,0,0
246895.575,254.92,-606.811,0,0
248197.2,256.276,-602.438,0,0
249498.825,259.209,-598.325,0,0
250800,262.992,-597.425,0,0
252102,265.613,-598.458,0,0
253404,266.454,-602.525,0,0
254705,263.069,-608.42,0,0
256007,254.599,-610.98,0,0
257309,245.177,-609.04,0,0
258610,236.727,-602.491,0,0
259912,232.935,-594.079,0,0
261213,230.864,-583.809,0,0
262515,236.768,-572.09,0,0
263817,249.036,-569.595,0,0
265118,256.594,-575.077,0,0
266420,259.947,-580.101,0,0
267721.55,263.021,-586.878,0,0
269023.175,261.908,-594.434,0,0
270324.8,262.211,-599.165,0,0
271626.425,265.585,-609.065,0,0
272928.05,267.033,-630.823,0,0
274229.675,246.569,-657.556,0,0
275531.3,210.358,-667.607,0,0
276832.925,175.735,-657.969,0,0
278134.55,151.679,-636.29,0,0
279436.175,141.52,-612.797,0,0
280737.8,138.906,-593.295,0,0
282039.425,138.88,-580.443,0,0
283341,136.232,-568.014,0,0
284643,136.125,-552.946,0,0
285944,140.892,-540.369,0,0
287246,146.094,-531.815,0,0
288548,149.264,-524.189,0,0
289849,153.494,-514.967,0,0
291151,160.308,-506.525,0,0
292452,168.357,-500.879,0,0
293754,176.226,-496.478,0,0
295056,184.521,-492.445,0,0
296357,194.974,-489.007,0,0
297659,207.905,-488.735,0,0
298960.525,220.971,-492.819,0,0
300262.15,234.237,-499.357,0,0
301563.775,249.189,-512.166,0,0
302865.4,260.078,-536.744,0,0
304167.025,253.456,-565.078,0,0
305468.65,237.701,-585.055,0,0
306770.275,217.46,-597.596,0,0
308071.9,196.588,-601.67,0,0
309373.525,177.903,-600.112,0,0
310675.15,162.898,-594.627,0,0
311976.775,151.628,-587.943,0,0
313278.4,142.355,-581.623,0,0
314580,133.826,-574.578,0,0
315882,127.472,-566.347,0,0
317183,123.767,-558.784,0,0
318485,120.692,-552.723,0,0
319787,118.309,-546.706,0,0
321088,117.217,-542.201,0,0
322390,115.376,-538.912,0,0
323691,112.749,-536.102,0,0
324993,109.765,-532.738,0,0
326295,107.222,-529.183,0,0
327596,104.811,-526.334,0,0
328898,101.644,-523.629,0,0
330200,98.3098,-520.489,0,0
331501.125,95.0871,-517.467,0,0
332802.75,90.9819,-514.69,0,0
334104.375,86.0742,-510.596,0,0
335406.0,81.7128,-505.328,0,0
336707.625,77.9063,-499.363,0,0
338009.25,74.9454,-492.779,0,0
339310.875,73.1162,-486.18,0,0
340612.5,71.7163,-479.96,0,0
341914.125,70.9609,-473.45,0,0
343215.75,70.9781,-467.305,0,0
344517.375,71.6364,-461.577,0,0
345819.0,72.8918,-456.84,0,0
347121,73.7611,-453.095,0,0
348422,73.7296,-449.713,0,0
349724,73.1481,-445.615,0,0
351025,72.7919,-440.94,0,0
352327,73.1292,-435.512,0,0
353629,74.8854,-430.677,0,0
354930,76.8861,-427.163,0,0
356232,78.5747,-424.612,0,0
357534,78.9201,-422.684,0,0
358835,77.9443,-419.713,0,0
360137,77.5198,-415.088,0,0
361438,78.4322,-410.082,0,0
362740.1,80.3488,-405.691,0,0
364041.725,82.5323,-401.953,0,0
365343.35,85.1115,-398.634,0,0
366644.975,87.724,-396.399,0,0
367946.6,89.8647,-394.42,0,0
369248.225,92.0763,-393.156,0,0
370549.85,93.0437,-392.989,0,0
371851.475,91.7854,-391.759,0,0
373153.1,90.9791,-388.188,0,0
374454.725,91.6089,-384.233,0,0
375756.35,92.943,-380.637,0,0
377057.975,94.5924,-377.336,0,0
378359.6,96.1133,-373.885,0,0
379661,98.5855,-370.208,0,0
380963,101.495,-367.382,0,0
382264,104.346,-364.683,0,0
383566,107.693,-362.357,0,0
384868,110.934,-360.617,0,0
386169,113.941,-359.174,0,0
387471,116.921,-357.429,0,0
388773,120.061,-355.709,0,0
390074,124.243,-354.043,0,0
391376,128.497,-353.403,0,0
392677,132.689,-352.95,0,0
393979,137.316,-352.746,0,0
395280.7,142.668,-352.924,0,0
396582.325,148.913,-354.347,0,0
397883.95,156.125,-358.275,0,0
399185.575,161.571,-365.699,0,0
400006.6,163.421,-371.508,0,0