Folder: ML_Dmg_Mehdi_Dataset/Accelerated corrosion test data/2025-10-06_06-00-03 (part 4)

File: sample_8.csv
Frequency (Hz),Impedance (ohms),Phase (Radians),Temperature (C),Humidity (%)
10000.0,310.371,-10936.8,0,0
11301.625,275.031,-9692.32,0,0
12603.25,252.948,-8703.9,0,0
13904.875,225.011,-7904.94,0,0
15206.5,204.545,-7233.44,0,0
16508.125,188.871,-6668.65,0,0
17809.75,175.598,-6184.36,0,0
19111.375,167.087,-5763.36,0,0
20413.0,159.469,-5401.98,0,0
21714.625,149.927,-5082.28,0,0
23016.25,143.795,-4799.82,0,0
24317.875,133.689,-4544.02,0,0
25619.5,126.701,-4311.82,0,0
26921.1,121.564,-4101.96,0,0
28222.7,118.599,-3912.06,0,0
29524.4,116.085,-3739.07,0,0
30826,114.206,-3582.28,0,0
32127.6,112.14,-3437.18,0,0
33429.2,113.367,-3302.51,0,0
34730.9,111.648,-3185.25,0,0
36032.5,106.09,-3075.52,0,0
37334.1,98.8786,-2969.6,0,0
38635.7,92.0211,-2868.67,0,0
39937.4,86.554,-2772.52,0,0
41239,84.347,-2682,0,0
42540.6,81.862,-2597.01,0,0
43842.225,81.0555,-2519.35,0,0
45143.85,78.0759,-2445.21,0,0
46445.475,75.544,-2374.39,0,0
47747.1,74.1827,-2307.32,0,0
49048.725,72.0917,-2244.59,0,0
50350.35,70.4017,-2183.83,0,0
51651.975,69.4938,-2125.82,0,0
52953.6,69.1526,-2071.68,0,0
54255.225,67.826,-2021.79,0,0
55556.85,64.8881,-1972.29,0,0
56858.475,62.6497,-1923.44,0,0
58160.1,61.9716,-1876.86,0,0
59461.7,61.773,-1833.32,0,0
60763.3,60.2836,-1790.46,0,0
62065,60.1729,-1749.66,0,0
63366.6,60.7741,-1709.83,0,0
64668.2,62.1595,-1673.97,0,0
65969.8,60.9332,-1639.77,0,0
67271.5,58.9321,-1605.33,0,0
68573.1,57.9822,-1571.31,0,0
69874.7,57.7952,-1538.09,0,0
71176.3,58.2494,-1506.86,0,0
72478,58.5331,-1477.31,0,0
73779.6,57.3824,-1448.17,0,0
75081.2,56.9937,-1419.6,0,0
76382.825,57.132,-1391.72,0,0
77684.45,56.9334,-1365.11,0,0
78986.075,56.4401,-1338.74,0,0
80287.7,56.674,-1312.63,0,0
81589.325,57.0079,-1287.1,0,0
82890.95,58.6363,-1262.42,0,0
84192.575,60.4889,-1239.11,0,0
85494.2,61.2002,-1218.09,0,0
86795.825,61.2328,-1194.95,0,0
88097.45,62.9094,-1172.56,0,0
89399.075,64.9689,-1151.04,0,0
90700.7,68.1303,-1129.82,0,0
92002.3,73.1332,-1111.73,0,0
93303.9,74.71,-1097.09,0,0
94605.6,74.6052,-1079.05,0,0
95907.2,76.0786,-1061.67,0,0
97208.8,77.9924,-1044.57,0,0
98510.4,80.4031,-1029.54,0,0
99812.1,80.3315,-1015.35,0,0
101114,80.8449,-1001.02,0,0
102415,79.735,-986.764,0,0
103717,78.8246,-970.677,0,0
105019,78.6299,-955.633,0,0
106320.175,79.5208,-939.633,0,0
107621.8,80.9048,-925.919,0,0
108923.425,80.6412,-911.915,0,0
110225.05,81.4817,-898.033,0,0
111526.675,81.538,-884.886,0,0
112828.3,81.6382,-871.656,0,0
114129.925,81.3544,-858.668,0,0
115431.55,81.0315,-845.344,0,0
116733.175,80.4676,-832.17,0,0
118034.8,80.1775,-818.143,0,0
119336.425,80.736,-805.076,0,0
120638.05,80.4496,-791.898,0,0
121939.675,80.4325,-778.223,0,0
123241,80.7657,-765.249,0,0
124543,81.0329,-751.061,0,0
125845,82.5557,-737.644,0,0
127146,83.68,-724.923,0,0
128448,84.5917,-712.471,0,0
129749,84.856,-699.66,0,0
131051,86.1557,-685.723,0,0
132353,87.0272,-673.565,0,0
133654,88.1053,-659.451,0,0
134956,89.758,-645.541,0,0
136258,93.4186,-632.481,0,0
137559,94.2004,-621.72,0,0
138860.775,93.4901,-607.154,0,0
140162.4,95.0422,-591.833,0,0
141464.025,96.8727,-575.886,0,0
142765.65,99.7867,-559.143,0,0
144067.275,103.952,-541.677,0,0
145368.9,110.529,-522.337,0,0
146670.525,120.78,-505.56,0,0
147972.15,130.599,-491.741,0,0
149273.775,139.533,-473.63,0,0
150575.4,155.691,-455.16,0,0
151877.025,179.978,-445.704,0,0
153178.65,194.628,-447.26,0,0
154480,202.513,-444.224,0,0
155782,214.673,-437.072,0,0
157084,222.326,-443.818,0,0
158385,219.634,-431.491,0,0
159687,234.784,-421.884,0,0
160988,237.821,-420.307,0,0
162290,247.216,-406.236,0,0
163592,264.878,-402.317,0,0
164893,274.575,-406.974,0,0
166195,276.185,-414.204,0,0
167497,266.828,-411.19,0,0
168798,259.657,-397.295,0,0
170100,259.504,-377.432,0,0
171401.375,263.396,-354.994,0,0
172703.0,276.349,-329.6,0,0
174004.625,295.442,-310.838,0,0
175306.25,314.094,-296.714,0,0
176607.875,331.819,-277.526,0,0
177909.5,357.746,-260.468,0,0
179211.125,390.584,-243.908,0,0
180512.75,427.517,-238.825,0,0
181814.375,458.917,-239.686,0,0
183116.0,491.506,-241.429,0,0
184417.625,516.839,-244.844,0,0
185719.25,549.638,-242.14,0,0
187021,591.228,-245.665,0,0
188322,633.768,-255.348,0,0
189624,678.667,-281.096,0,0
190926,709.802,-303.81,0,0
192227,754.391,-327.135,0,0
193529,800.216,-355.653,0,0
194831,863.542,-413.345,0,0
196132,901.625,-498.712,0,0
197434,908.878,-605.267,0,0
198735,875.712,-701.5,0,0
200037,821.123,-777.3,0,0
201339,748.287,-826.159,0,0
202640.35,678.69,-852.268,0,0
203941.975,611.66,-851.432,0,0
205243.6,564.012,-838.86,0,0
206545.225,524.175,-821.484,0,0
207846.85,502.322,-796.521,0,0
209148.475,490.643,-780.27,0,0
210450.1,486.709,-765.608,0,0
211751.725,487.598,-761.38,0,0
213053.35,487.94,-764.942,0,0
214354.975,482.16,-773.767,0,0
215656.6,468.758,-781.521,0,0
216958.225,452.988,-780.168,0,0
218259.85,447.765,-774.307,0,0
219561,447.975,-776.803,0,0
220863,445.274,-784.836,0,0
222165,441.673,-795.472,0,0
223466,431.1,-811.429,0,0
224768,417.101,-822.854,0,0
226070,399.381,-837.703,0,0
227371,373.745,-846.659,0,0
228673,346.82,-846.583,0,0
229974,327.305,-844.466,0,0
231276,303.442,-844.25,0,0
232578,279.128,-837.239,0,0
233879,257.318,-826.071,0,0
235180.95,238.092,-811.435,0,0
236482.575,224.229,-794.429,0,0
237784.2,215.418,-778.382,0,0
239085.825,209.566,-763.993,0,0
240387.45,206.791,-755.187,0,0
241689.075,199.412,-749.115,0,0
242990.7,188.767,-740.487,0,0
244292.325,179.486,-727.816,0,0
245593.95,173.384,-714.159,0,0
246895.575,170.241,-700.155,0,0
248197.2,168.312,-689.624,0,0
249498.825,164.625,-677.621,0,0
250800,163.957,-663.415,0,0
252102,167.649,-649.738,0,0
253404,175.021,-641.527,0,0
254705,178.23,-637.366,0,0
256007,179.869,-630.893,0,0
257309,183.092,-624.151,0,0
258610,188.178,-617.707,0,0
259912,195.141,-614.009,0,0
261213,200.597,-613.224,0,0
262515,204.992,-613.496,0,0
263817,207.344,-613.565,0,0
265118,209.149,-612.272,0,0
266420,214.651,-608.63,0,0
267721.55,226.042,-608.394,0,0
269023.175,239.337,-617.344,0,0
270324.8,246.384,-634.956,0,0
271626.425,244.829,-656.559,0,0
272928.05,232.677,-677.086,0,0
274229.675,211.454,-690.852,0,0
275531.3,187.237,-693.889,0,0
276832.925,167.138,-688.796,0,0
278134.55,151.649,-680.218,0,0
279436.175,139.405,-669.868,0,0
280737.8,131.699,-658.114,0,0
282039.425,128.202,-648.129,0,0
283341,126.056,-640.903,0,0
284643,123.476,-634.459,0,0
285944,122.984,-627.575,0,0
287246,125.921,-624.822,0,0
288548,124.834,-628.564,0,0
289849,117.363,-630.4,0,0
291151,109.04,-628.165,0,0
292452,101.122,-625.064,0,0
293754,92.9304,-619.688,0,0
295056,85.9903,-612.848,0,0
296357,80.3763,-605.036,0,0
297659,76.3316,-597.13,0,0
298960.525,73.1741,-589.336,0,0
300262.15,70.764,-581.519,0,0
301563.775,69.7472,-573.547,0,0
302865.4,70.1578,-566.705,0,0
304167.025,70.7911,-561.198,0,0
305468.65,71.4098,-556.333,0,0
306770.275,72.316,-552.363,0,0
308071.9,72.9022,-549.279,0,0
309373.525,72.878,-547.381,0,0
310675.15,71.3003,-545.21,0,0
311976.775,69.644,-542.47,0,0
313278.4,67.7849,-539.718,0,0
314580,65.4138,-536.645,0,0
315882,63.2002,-532.597,0,0
317183,61.6072,-528.253,0,0
318485,60.6891,-524.189,0,0
319787,60.2841,-520.505,0,0
321088,59.8202,-517.713,0,0
322390,58.7447,-515.343,0,0
323691,57.129,-512.858,0,0
324993,55.0254,-510.181,0,0
326295,52.6025,-506.831,0,0
327596,50.6386,-502.99,0,0
328898,48.836,-498.963,0,0
330200,47.2781,-494.944,0,0
331501.125,45.8696,-490.638,0,0
332802.75,44.8137,-486.252,0,0
334104.375,44.1735,-481.86,0,0
335406.0,44.0278,-477.674,0,0
336707.625,44.0541,-474.025,0,0
338009.25,44.0409,-470.686,0,0
339310.875,43.7588,-467.687,0,0
340612.5,43.1721,-464.685,0,0
341914.125,42.3412,-461.552,0,0
343215.75,41.5333,-458.079,0,0
344517.375,40.9041,-454.423,0,0
345819.0,40.547,-450.761,0,0
347121,40.3824,-446.987,0,0
348422,40.4161,-443.359,0,0
349724,40.6848,-439.886,0,0
351025,41.1327,-436.582,0,0
352327,41.5968,-433.579,0,0
353629,41.985,-430.67,0,0
354930,42.3804,-427.944,0,0
356232,42.8156,-425.467,0,0
357534,42.8183,-423.116,0,0
358835,42.6401,-420.569,0,0
360137,42.4171,-417.798,0,0
361438,42.4354,-414.898,0,0
362740.1,42.4958,-411.965,0,0
364041.725,42.8249,-408.914,0,0
365343.35,43.4154,-405.934,0,0
366644.975,44.2283,-403.344,0,0
367946.6,44.8123,-400.956,0,0
369248.225,45.3318,-398.344,0,0
370549.85,46.5166,-395.737,0,0
371851.475,47.8026,-394.05,0,0
373153.1,48.6019,-392.697,0,0
374454.725,48.8532,-391.448,0,0
375756.35,48.9018,-389.811,0,0
377057.975,49.2208,-388.102,0,0
378359.6,49.3795,-386.918,0,0
379661,48.8154,-385.375,0,0
380963,49.0691,-383.04,0,0
382264,49.7,-382.264,0,0
383566,48.7482,-381.68,0,0
384868,47.2223,-380.133,0,0
386169,45.8266,-377.699,0,0
387471,44.863,-374.879,0,0
388773,44.4151,-371.829,0,0
390074,44.4449,-368.975,0,0
391376,44.5305,-366.525,0,0
392677,44.4521,-364.008,0,0
393979,44.4705,-361.442,0,0
395280.7,44.5928,-358.871,0,0
396582.325,44.8702,-356.281,0,0
397883.95,45.2359,-353.932,0,0
399185.575,45.4264,-351.675,0,0
400006.6,45.4426,-350.191,0,0