Folder: ML_Dmg_Mehdi_Dataset/Accelerated corrosion test data/2025-10-02_06-00-03 (part 2)

File: sample_3.csv
Frequency (Hz),Impedance (ohms),Phase (Radians),Temperature (C),Humidity (%)
10000.0,254.69,-11763.5,0,0
11301.625,226.728,-10419.9,0,0
12603.25,206.004,-9351.75,0,0
13904.875,187.707,-8481.7,0,0
15206.5,175.1,-7753.7,0,0
16508.125,164.589,-7160.18,0,0
17809.75,159.787,-6632.85,0,0
19111.375,148.206,-6180.9,0,0
20413.0,159.635,-5780.49,0,0
21714.625,140.352,-5462.24,0,0
23016.25,129.431,-5157.25,0,0
24317.875,120.638,-4878.32,0,0
25619.5,115.038,-4632,0,0
26921.1,110.033,-4402.24,0,0
28222.7,105.207,-4196.3,0,0
29524.4,111.073,-4017.5,0,0
30826,102.236,-3846.88,0,0
32127.6,102.739,-3683.8,0,0
33429.2,101.158,-3558.6,0,0
34730.9,89.1145,-3421.73,0,0
36032.5,84.5788,-3294.22,0,0
37334.1,81.6319,-3176.55,0,0
38635.7,79.1556,-3066.71,0,0
39937.4,76.8431,-2964.7,0,0
41239,75.4744,-2867.82,0,0
42540.6,74.246,-2778.45,0,0
43842.225,72.7352,-2693.03,0,0
45143.85,71.4589,-2613.62,0,0
46445.475,71.0921,-2537.87,0,0
47747.1,71.0657,-2465.21,0,0
49048.725,69.5439,-2400.33,0,0
50350.35,67.5053,-2335.2,0,0
51651.975,67.329,-2272.81,0,0
52953.6,67.5542,-2213.03,0,0
54255.225,70.1528,-2158.54,0,0
55556.85,67.8473,-2111.14,0,0
56858.475,62.551,-2058.34,0,0
58160.1,62.0768,-2006.44,0,0
59461.7,62.6314,-1957.39,0,0
60763.3,63.9788,-1910.71,0,0
62065,66.0185,-1866.18,0,0
63366.6,69.4636,-1822.8,0,0
64668.2,78.0834,-1781.34,0,0
65969.8,92.8031,-1755.06,0,0
67271.5,77.3641,-1730.57,0,0
68573.1,76.8953,-1693.26,0,0
69874.7,76.4938,-1663.93,0,0
71176.3,71.3173,-1633.28,0,0
72478,69.852,-1600.72,0,0
73779.6,68.2632,-1572.37,0,0
75081.2,64.669,-1544.13,0,0
76382.825,61.1372,-1514.98,0,0
77684.45,58.7478,-1486.13,0,0
78986.075,56.5567,-1457.7,0,0
80287.7,55.0466,-1429.69,0,0
81589.325,53.9897,-1402.54,0,0
82890.95,53.4634,-1376.14,0,0
84192.575,53.1558,-1350.48,0,0
85494.2,53.0173,-1325.51,0,0
86795.825,53.194,-1301.17,0,0
88097.45,53.8036,-1277.24,0,0
89399.075,54.9399,-1253.51,0,0
90700.7,57.2297,-1231.4,0,0
92002.3,59.9859,-1210.34,0,0
93303.9,63.5279,-1191.75,0,0
94605.6,65.3314,-1177.3,0,0
95907.2,59.6166,-1160.16,0,0
97208.8,58.6864,-1139.16,0,0
98510.4,58.8203,-1120.29,0,0
99812.1,58.005,-1102.03,0,0
101114,57.0297,-1082.6,0,0
102415,58.0911,-1062.05,0,0
103717,62.0891,-1044.21,0,0
105019,66.221,-1030.54,0,0
106320.175,64.4584,-1017.99,0,0
107621.8,61.138,-1002.12,0,0
108923.425,59.0002,-984.067,0,0
110225.05,58.9025,-965.123,0,0
111526.675,61.2899,-947.136,0,0
112828.3,63.3962,-930.988,0,0
114129.925,64.9881,-914.703,0,0
115431.55,67.3406,-898.182,0,0
116733.175,71.0301,-881.611,0,0
118034.8,76.6665,-865.991,0,0
119336.425,83.6464,-854.313,0,0
120638.05,88.5777,-847.974,0,0
121939.675,86.5456,-839.002,0,0
123241,86.8742,-826.047,0,0
124543,88.2385,-814.756,0,0
125845,89.2246,-804.611,0,0
127146,88.5551,-794.737,0,0
128448,86.5643,-783.655,0,0
129749,85.0217,-770.404,0,0
131051,85.8933,-757.142,0,0
132353,85.4204,-745.923,0,0
133654,84.8141,-733.637,0,0
134956,83.6406,-720.901,0,0
136258,82.4893,-707.248,0,0
137559,82.5988,-692.26,0,0
138860.775,84.0342,-678.812,0,0
140162.4,83.3296,-665.524,0,0
141464.025,83.2369,-650.947,0,0
142765.65,82.7871,-635.4,0,0
144067.275,83.0842,-618.285,0,0
145368.9,84.6916,-600.509,0,0
146670.525,87.2371,-581.719,0,0
147972.15,91.6849,-561.979,0,0
149273.775,98.2131,-541.614,0,0
150575.4,108.156,-521.188,0,0
151877.025,121.182,-504.054,0,0
153178.65,134.069,-489.886,0,0
154480,144.832,-477.345,0,0
155782,153.442,-461.931,0,0
157084,165.158,-445.563,0,0
158385,180.833,-432.095,0,0
159687,189.036,-417.917,0,0
160988,201.698,-391.041,0,0
162290,229.186,-364.512,0,0
163592,267.971,-346.498,0,0
164893,313.625,-337.701,0,0
166195,366.048,-352.057,0,0
167497,401.956,-382.411,0,0
168798,422.509,-419.426,0,0
170100,428.327,-456.1,0,0
171401.375,413.298,-476.775,0,0
172703.0,407.993,-481.473,0,0
174004.625,413.078,-486.331,0,0
175306.25,421.077,-507.417,0,0
176607.875,410.566,-529.516,0,0
177909.5,392.532,-544.994,0,0
179211.125,366.492,-539.671,0,0
180512.75,357.751,-524.674,0,0
181814.375,362.73,-519.705,0,0
183116.0,356.569,-527.461,0,0
184417.625,341.29,-523.428,0,0
185719.25,328.518,-509.417,0,0
187021,322.242,-488.535,0,0
188322,327.429,-468.648,0,0
189624,333.797,-454.854,0,0
190926,343.249,-439.36,0,0
192227,352.514,-425.993,0,0
193529,363.95,-409.38,0,0
194831,385.759,-390.323,0,0
196132,418.996,-387.435,0,0
197434,442.63,-398.505,0,0
198735,452.137,-408.511,0,0
200037,459.85,-407.024,0,0
201339,468.769,-405.405,0,0
202640.35,482.455,-396.999,0,0
203941.975,509.569,-390.92,0,0
205243.6,541.513,-398.158,0,0
206545.225,560.483,-417.104,0,0
207846.85,575.015,-423.369,0,0
209148.475,601.626,-427.145,0,0
210450.1,636.206,-444.506,0,0
211751.725,665.003,-473.749,0,0
213053.35,687.831,-507.289,0,0
214354.975,707.125,-548.877,0,0
215656.6,715.474,-594.603,0,0
216958.225,717.516,-641.823,0,0
218259.85,706.183,-690.403,0,0
219561,683.875,-731.7,0,0
220863,666.205,-766.202,0,0
222165,635.074,-807.139,0,0
223466,591.443,-834.367,0,0
224768,547.699,-840.242,0,0
226070,521.422,-836.944,0,0
227371,504.006,-845.29,0,0
228673,479.831,-856.304,0,0
229974,450.365,-864.457,0,0
231276,420.111,-865.933,0,0
232578,392.999,-862.305,0,0
233879,368.832,-858.016,0,0
235180.95,345.624,-853.237,0,0
236482.575,321.895,-847.522,0,0
237784.2,297.958,-838.137,0,0
239085.825,274.817,-824.85,0,0
240387.45,256.154,-806.821,0,0
241689.075,242.867,-788.295,0,0
242990.7,233.931,-770.054,0,0
244292.325,228.891,-754.392,0,0
245593.95,223.94,-742.338,0,0
246895.575,219.227,-730.061,0,0
248197.2,215.072,-718.029,0,0
249498.825,214.138,-706.179,0,0
250800,213.889,-698.643,0,0
252102,209.476,-693.485,0,0
253404,201.719,-684.165,0,0
254705,196.522,-669.481,0,0
256007,196.602,-652.544,0,0
257309,204.308,-637.474,0,0
258610,214.377,-629.402,0,0
259912,224.413,-622.11,0,0
261213,239.491,-621.878,0,0
262515,251.341,-631.908,0,0
263817,252.52,-646.825,0,0
265118,244.74,-659.352,0,0
266420,229.89,-665.674,0,0
267721.55,214.741,-662.746,0,0
269023.175,204.258,-654.442,0,0
270324.8,198.282,-644.659,0,0
271626.425,195.642,-635.483,0,0
272928.05,195.645,-627.649,0,0
274229.675,195.33,-621.369,0,0
275531.3,197.416,-613.719,0,0
276832.925,203.43,-607.924,0,0
278134.55,211.939,-608.537,0,0
279436.175,216.592,-615.467,0,0
280737.8,213.528,-623.791,0,0
282039.425,207.114,-627.73,0,0
283341,199.379,-629.945,0,0
284643,191.107,-628.491,0,0
285944,183.476,-625.232,0,0
287246,177.141,-618.887,0,0
288548,175.466,-611.552,0,0
289849,176.49,-607.862,0,0
291151,175.538,-606.641,0,0
292452,172.872,-604.994,0,0
293754,170.529,-601.266,0,0
295056,171.226,-597.775,0,0
296357,173.102,-597.729,0,0
297659,172.676,-600.407,0,0
298960.525,168.927,-603.691,0,0
300262.15,163.102,-604.98,0,0
301563.775,156.508,-604.857,0,0
302865.4,149.486,-602.88,0,0
304167.025,143.163,-599.35,0,0
305468.65,137.747,-594.638,0,0
306770.275,133.57,-589.505,0,0
308071.9,130.943,-584.262,0,0
309373.525,129.344,-580.588,0,0
310675.15,126.668,-577.978,0,0
311976.775,123.075,-574.844,0,0
313278.4,118.864,-570.942,0,0
314580,115.205,-564.976,0,0
315882,113.877,-558.195,0,0
317183,114.731,-552.804,0,0
318485,115.805,-549.672,0,0
319787,115.908,-547.269,0,0
321088,115.645,-544.762,0,0
322390,116.216,-542.728,0,0
323691,116.612,-542.429,0,0
324993,115.311,-543.264,0,0
326295,112.058,-543.658,0,0
327596,107.831,-542.844,0,0
328898,103.651,-540.687,0,0
330200,99.7536,-538.361,0,0
331501.125,95.5699,-535.74,0,0
332802.75,91.031,-532.223,0,0
334104.375,86.6236,-527.889,0,0
335406.0,82.7063,-522.336,0,0
336707.625,79.8721,-516.202,0,0
338009.25,78.1319,-510.04,0,0
339310.875,76.895,-503.782,0,0
340612.5,76.9472,-497.089,0,0
341914.125,78.8108,-491.405,0,0
343215.75,81.318,-487.619,0,0
344517.375,82.9547,-485.656,0,0
345819.0,83.192,-483.967,0,0
347121,82.5602,-481.817,0,0
348422,81.8535,-478.836,0,0
349724,81.7305,-475.469,0,0
351025,82.4917,-472.255,0,0
352327,83.838,-470.471,0,0
353629,83.9479,-470.013,0,0
354930,82.219,-469.196,0,0
356232,80.1032,-466.777,0,0
357534,78.6528,-463.789,0,0
358835,77.5011,-460.573,0,0
360137,76.8102,-456.997,0,0
361438,76.6819,-453.532,0,0
362740.1,76.9406,-450.407,0,0
364041.725,77.6221,-447.326,0,0
365343.35,79.0504,-445.102,0,0
366644.975,79.7992,-444.845,0,0
367946.6,77.8889,-444.534,0,0
369248.225,75.0746,-441.741,0,0
370549.85,74.4579,-436.838,0,0
371851.475,76.3542,-433.866,0,0
373153.1,76.9789,-433.207,0,0
374454.725,75.6725,-432.002,0,0
375756.35,73.9951,-429.529,0,0
377057.975,73.0398,-425.931,0,0
378359.6,73.5188,-422.335,0,0
379661,74.478,-419.705,0,0
380963,75.245,-417.759,0,0
382264,75.895,-416.226,0,0
383566,75.9741,-415.284,0,0
384868,75.0624,-414.139,0,0
386169,73.6433,-412.162,0,0
387471,72.4072,-409.368,0,0
388773,71.6471,-406.088,0,0
390074,71.4394,-402.437,0,0
391376,72.1639,-398.611,0,0
392677,73.7948,-395.232,0,0
393979,76.157,-392.76,0,0
395280.7,78.4882,-391.487,0,0
396582.325,80.4256,-391.182,0,0
397883.95,81.5402,-391.568,0,0
399185.575,81.3851,-392.356,0,0
400006.6,80.6866,-392.461,0,0

File: sample_4.csv
Frequency (Hz),Impedance (ohms),Phase (Radians),Temperature (C),Humidity (%)
10000.0,264.749,-11855.1,0,0
11301.625,235.868,-10503.5,0,0
12603.25,214.171,-9423.43,0,0
13904.875,194.981,-8543.69,0,0
15206.5,182.188,-7820.33,0,0
16508.125,184.811,-7205.51,0,0
17809.75,157.163,-6699.66,0,0
19111.375,146.312,-6244.54,0,0
20413.0,142.093,-5845,0,0
21714.625,145.567,-5499.31,0,0
23016.25,126.382,-5200.39,0,0
24317.875,117.038,-4915.93,0,0
25619.5,113.562,-4662.93,0,0
26921.1,107.72,-4434.7,0,0
28222.7,120.879,-4227.75,0,0
29524.4,114.21,-4052.12,0,0
30826,99.8965,-3881.15,0,0
32127.6,100.155,-3720.8,0,0
33429.2,91.0399,-3580.25,0,0
34730.9,85.8175,-3442.32,0,0
36032.5,82.6602,-3314.61,0,0
37334.1,80.7594,-3196.23,0,0
38635.7,78.1536,-3084.48,0,0
39937.4,77.7828,-2979.08,0,0
41239,80.5417,-2883.51,0,0
42540.6,79.8309,-2797.61,0,0
43842.225,74.6807,-2713.7,0,0
45143.85,71.967,-2632.54,0,0
46445.475,71.5407,-2555.75,0,0
47747.1,70.6205,-2485.97,0,0
49048.725,66.844,-2416.76,0,0
50350.35,65.3517,-2349.44,0,0
51651.975,64.8614,-2284.83,0,0
52953.6,66.774,-2221.85,0,0
54255.225,74.376,-2165.51,0,0
55556.85,72.1661,-2122.42,0,0
56858.475,66.2409,-2069.07,0,0
58160.1,67.0323,-2016.63,0,0
59461.7,71.2712,-1965.93,0,0
60763.3,81.3717,-1928.2,0,0
62065,70.5495,-1895.2,0,0
63366.6,65.1368,-1849.37,0,0
64668.2,64.9723,-1806.28,0,0
65969.8,66.9274,-1765.98,0,0
67271.5,70.5196,-1729.74,0,0
68573.1,74.3016,-1700.79,0,0
69874.7,66.879,-1671,0,0
71176.3,65.7849,-1636.75,0,0
72478,59.5588,-1605.75,0,0
73779.6,58.0707,-1568.97,0,0
75081.2,60.1877,-1536.38,0,0
76382.825,62.6975,-1507.51,0,0
77684.45,65.5052,-1479.41,0,0
78986.075,64.5891,-1457.2,0,0
80287.7,61.463,-1430.49,0,0
81589.325,60.9506,-1404.51,0,0
82890.95,59.6586,-1379.63,0,0
84192.575,58.4301,-1354.91,0,0
85494.2,57.5669,-1330.7,0,0
86795.825,56.8935,-1306.92,0,0
88097.45,55.4985,-1284.41,0,0
89399.075,53.9971,-1260.06,0,0
90700.7,53.9066,-1237.1,0,0
92002.3,54.1781,-1214.07,0,0
93303.9,55.5463,-1193.23,0,0
94605.6,54.2115,-1173.18,0,0
95907.2,53.4873,-1150.84,0,0
97208.8,54.201,-1129.29,0,0
98510.4,55.3413,-1107.99,0,0
99812.1,57.8046,-1087.38,0,0
101114,61.6539,-1068.53,0,0
102415,60.8866,-1053.8,0,0
103717,57.9584,-1031.76,0,0
105019,61.37,-1008.13,0,0
106320.175,67.5136,-987.924,0,0
107621.8,73.7285,-969.67,0,0
108923.425,81.5238,-952.316,0,0
110225.05,89.4609,-938.935,0,0
111526.675,95.7765,-927.022,0,0
112828.3,101.76,-916.187,0,0
114129.925,106.303,-907.215,0,0
115431.55,109.227,-899.219,0,0
116733.175,109.664,-891.363,0,0
118034.8,107.859,-881.224,0,0
119336.425,109.271,-867.898,0,0
120638.05,114.464,-863.201,0,0
121939.675,107.319,-857.627,0,0
123241,102.022,-845.593,0,0
124543,99.0492,-833.23,0,0
125845,96.7037,-820.806,0,0
127146,93.8096,-810.303,0,0
128448,88.7322,-798.448,0,0
129749,82.0935,-784.438,0,0
131051,76.9665,-766.891,0,0
132353,74.1566,-748.229,0,0
133654,73.1106,-729.312,0,0
134956,73.5083,-710.309,0,0
136258,75.6105,-691.841,0,0
137559,78.4472,-674.244,0,0
138860.775,80.4318,-656.753,0,0
140162.4,83.4782,-637.964,0,0
141464.025,88.515,-618.855,0,0
142765.65,94.5702,-600.827,0,0
144067.275,100.935,-582.81,0,0
145368.9,108.496,-564.327,0,0
146670.525,117.518,-545.725,0,0
147972.15,128.189,-527.663,0,0
149273.775,140.243,-509.19,0,0
150575.4,155.339,-491.441,0,0
151877.025,173.892,-475.26,0,0
153178.65,195.362,-462.733,0,0
154480,216.897,-457.237,0,0
155782,234.048,-453.104,0,0
157084,250.36,-451.047,0,0
158385,264.725,-446.365,0,0
159687,284.32,-443.627,0,0
160988,302.353,-448.901,0,0
162290,310.044,-457.041,0,0
163592,313.759,-456.367,0,0
164893,322.509,-448.522,0,0
166195,338.697,-442.672,0,0
167497,363.328,-439.887,0,0
168798,393.305,-454.738,0,0
170100,410.259,-483.716,0,0
171401.375,410.193,-521.017,0,0
172703.0,387.35,-548.715,0,0
174004.625,353.359,-556.674,0,0
175306.25,325.199,-546.64,0,0
176607.875,305.784,-526.394,0,0
177909.5,298.02,-502.375,0,0
179211.125,298.03,-481.617,0,0
180512.75,300.597,-463.24,0,0
181814.375,304.368,-446.525,0,0
183116.0,307.624,-429.761,0,0
184417.625,311.589,-409.615,0,0
185719.25,318.674,-386.919,0,0
187021,330.526,-361.479,0,0
188322,347.596,-334.668,0,0
189624,371.433,-307.167,0,0
190926,403.603,-280.08,0,0
192227,445.505,-257.546,0,0
193529,494.628,-242.7,0,0
194831,548.593,-235.446,0,0
196132,608.075,-236.568,0,0
197434,674.356,-247.183,0,0
198735,748.414,-276.158,0,0
200037,820.518,-331.955,0,0
201339,872.982,-412.628,0,0
202640.35,896.12,-504.472,0,0
203941.975,892.928,-588.904,0,0
205243.6,875.471,-666.721,0,0
206545.225,845.622,-735.769,0,0
207846.85,804.731,-797.363,0,0
209148.475,747.037,-845.585,0,0
210450.1,685.862,-867.506,0,0
211751.725,635.417,-874.761,0,0
213053.35,593.345,-871.974,0,0
214354.975,564.371,-863.793,0,0
215656.6,547.718,-862.054,0,0
216958.225,529.575,-868.647,0,0
218259.85,506.8,-875.787,0,0
219561,483.085,-877.73,0,0
220863,462.193,-881.011,0,0
222165,439.119,-883.623,0,0
223466,416.624,-882.987,0,0
224768,395.294,-883.155,0,0
226070,371.55,-884.156,0,0
227371,344.2,-880.304,0,0
228673,317,-872.027,0,0
229974,292.054,-857.318,0,0
231276,273.038,-839.03,0,0
232578,259.276,-821.478,0,0
233879,248.179,-804.359,0,0
235180.95,240.028,-788.42,0,0
236482.575,233.644,-774.02,0,0
237784.2,228.246,-759.691,0,0
239085.825,225.911,-746.403,0,0
240387.45,224.84,-736.228,0,0
241689.075,223.311,-728.595,0,0
242990.7,220.26,-722.263,0,0
244292.325,215.779,-716.062,0,0
245593.95,209.617,-709.074,0,0
246895.575,203.757,-699.345,0,0
248197.2,200.421,-688.738,0,0
249498.825,198.417,-679.815,0,0
250800,195.894,-671.454,0,0
252102,193.072,-664.112,0,0
253404,187.092,-655.211,0,0
254705,182.533,-641.622,0,0
256007,180.903,-626.026,0,0
257309,183.401,-608.338,0,0
258610,190.742,-591.133,0,0
259912,203.875,-575.089,0,0
261213,222.877,-564.186,0,0
262515,243.862,-561.46,0,0
263817,264.529,-565.215,0,0
265118,282.074,-574.583,0,0
266420,297.65,-591.059,0,0
267721.55,303.797,-613.9,0,0
269023.175,300.723,-634.942,0,0
270324.8,288.945,-653.412,0,0
271626.425,275.694,-660.243,0,0
272928.05,267.355,-667.464,0,0
274229.675,255.804,-676.314,0,0
275531.3,239.786,-684.05,0,0
276832.925,218.672,-684.757,0,0
278134.55,199.428,-676.318,0,0
279436.175,186.977,-662.247,0,0
280737.8,183.497,-648.721,0,0
282039.425,182.495,-640.68,0,0
283341,181.393,-633.25,0,0
284643,183.011,-629.933,0,0
285944,180.052,-628.933,0,0
287246,173.941,-626.271,0,0
288548,166.514,-617.607,0,0
289849,166.369,-603.894,0,0
291151,174.989,-594.002,0,0
292452,186.783,-592.371,0,0
293754,196.503,-598.856,0,0
295056,198.722,-611.56,0,0
296357,191.523,-622.592,0,0
297659,180.414,-627.355,0,0
298960.525,170.233,-627.219,0,0
300262.15,161.946,-625.689,0,0
301563.775,153.832,-623.64,0,0
302865.4,145.813,-619.862,0,0
304167.025,138.99,-614.908,0,0
305468.65,133.357,-609.23,0,0
306770.275,129.352,-603.035,0,0
308071.9,126.808,-597.95,0,0
309373.525,124.347,-593.965,0,0
310675.15,121.303,-590.255,0,0
311976.775,118.056,-586.367,0,0
313278.4,114.939,-581.826,0,0
314580,112.875,-577.123,0,0
315882,111.501,-572.818,0,0
317183,110.658,-569.713,0,0
318485,109.641,-567.679,0,0
319787,107.221,-566.778,0,0
321088,103.595,-565.89,0,0
322390,97.6697,-564.441,0,0
323691,90.6718,-559.929,0,0
324993,85.7578,-552.968,0,0
326295,82.6884,-546.28,0,0
327596,80.1334,-539.633,0,0
328898,78.3611,-532.585,0,0
330200,77.9896,-525.559,0,0
331501.125,79.2443,-519.743,0,0
332802.75,80.2685,-515.864,0,0
334104.375,80.1538,-512.831,0,0
335406.0,78.8959,-509.573,0,0
336707.625,77.2275,-505.446,0,0
338009.25,75.4526,-500.057,0,0
339310.875,75.0026,-493.67,0,0
340612.5,76.1285,-487.28,0,0
341914.125,78.8135,-481.446,0,0
343215.75,83.0287,-477.372,0,0
344517.375,87.138,-476.153,0,0
345819.0,89.24,-476.554,0,0
347121,89.451,-476.936,0,0
348422,88.4738,-476.805,0,0
349724,86.7214,-475.829,0,0
351025,84.5039,-473.831,0,0
352327,82.4946,-470.89,0,0
353629,81.2213,-467.07,0,0
354930,81.278,-463.344,0,0
356232,81.5904,-460.73,0,0
357534,81.3806,-458.559,0,0
358835,80.1988,-456.503,0,0
360137,78.5564,-452.867,0,0
361438,78.2177,-448.466,0,0
362740.1,78.8005,-444.405,0,0
364041.725,79.7729,-441.239,0,0
365343.35,79.9636,-438.542,0,0
366644.975,79.7483,-434.534,0,0
367946.6,80.8831,-429.666,0,0
369248.225,83.7368,-424.752,0,0
370549.85,88.4093,-421.274,0,0
371851.475,93.8184,-419.757,0,0
373153.1,99.0785,-421.273,0,0
374454.725,101.387,-424.94,0,0
375756.35,100.917,-427.435,0,0
377057.975,100.404,-428.58,0,0
378359.6,99.407,-429.72,0,0
379661,98.0994,-430.073,0,0
380963,96.854,-430.226,0,0
382264,95.6754,-429.893,0,0
383566,95.6886,-430.024,0,0
384868,94.541,-432.54,0,0
386169,90.2525,-434.131,0,0
387471,85.0788,-433.168,0,0
388773,80.7072,-429.587,0,0
390074,79.3057,-425.382,0,0
391376,79.6764,-423.259,0,0
392677,78.6803,-423.563,0,0
393979,75.0661,-423.627,0,0
395280.7,70.2189,-421.354,0,0
396582.325,66.3457,-417.28,0,0
397883.95,63.6994,-412.444,0,0
399185.575,61.9558,-407.618,0,0
400006.6,61.0855,-404.505,0,0