Folder: ML_Dmg_Mehdi_Dataset/Accelerated corrosion test data/2025-10-04_06-00-03 (part 4)

File: sample_8.csv
Frequency (Hz),Impedance (ohms),Phase (Radians),Temperature (C),Humidity (%)
10000.0,312.304,-10933.8,0,0
11301.625,277.007,-9689.54,0,0
12603.25,254.228,-8701.29,0,0
13904.875,225.764,-7902.91,0,0
15206.5,206.213,-7231.66,0,0
16508.125,190.055,-6666.85,0,0
17809.75,176.409,-6182.85,0,0
19111.375,167.919,-5761.93,0,0
20413.0,160.207,-5400.54,0,0
21714.625,150.911,-5080.97,0,0
23016.25,144.456,-4798.97,0,0
24317.875,134.537,-4542.72,0,0
25619.5,127.657,-4311.28,0,0
26921.1,121.927,-4101.16,0,0
28222.7,118.657,-3910.95,0,0
29524.4,116.597,-3738.81,0,0
30826,114.15,-3581.92,0,0
32127.6,111.766,-3436.33,0,0
33429.2,112.873,-3301.67,0,0
34730.9,111.227,-3183.63,0,0
36032.5,106.731,-3073.93,0,0
37334.1,99.7795,-2968.28,0,0
38635.7,92.7319,-2868.07,0,0
39937.4,87.1434,-2771.88,0,0
41239,84.8214,-2681.38,0,0
42540.6,82.0918,-2596.78,0,0
43842.225,81.8936,-2518.67,0,0
45143.85,78.5876,-2444.54,0,0
46445.475,75.903,-2373.81,0,0
47747.1,74.6214,-2306.88,0,0
49048.725,72.5385,-2244.16,0,0
50350.35,70.8035,-2183.37,0,0
51651.975,69.8761,-2125.35,0,0
52953.6,69.385,-2071.23,0,0
54255.225,68.3489,-2021.35,0,0
55556.85,65.1166,-1971.98,0,0
56858.475,62.9971,-1923.02,0,0
58160.1,62.2263,-1876.49,0,0
59461.7,62.1414,-1832.91,0,0
60763.3,60.5113,-1790.25,0,0
62065,60.4183,-1749.34,0,0
63366.6,60.8276,-1709.55,0,0
64668.2,62.3074,-1673.58,0,0
65969.8,61.1659,-1639.57,0,0
67271.5,59.1945,-1604.9,0,0
68573.1,58.2538,-1570.96,0,0
69874.7,58.0277,-1537.69,0,0
71176.3,58.4658,-1506.56,0,0
72478,58.7988,-1477.06,0,0
73779.6,57.6717,-1447.8,0,0
75081.2,57.2288,-1419.35,0,0
76382.825,57.3288,-1391.43,0,0
77684.45,57.2067,-1364.87,0,0
78986.075,56.6419,-1338.53,0,0
80287.7,56.7925,-1312.46,0,0
81589.325,57.218,-1286.99,0,0
82890.95,58.6845,-1262.18,0,0
84192.575,60.6169,-1238.82,0,0
85494.2,61.5441,-1217.77,0,0
86795.825,61.4005,-1194.92,0,0
88097.45,63.0288,-1172.45,0,0
89399.075,65.019,-1150.94,0,0
90700.7,68.0351,-1129.74,0,0
92002.3,73.0622,-1111.3,0,0
93303.9,75.0062,-1096.87,0,0
94605.6,74.5575,-1079.01,0,0
95907.2,76.1984,-1061.31,0,0
97208.8,77.7947,-1044.37,0,0
98510.4,80.1724,-1029.09,0,0
99812.1,80.3455,-1015.01,0,0
101114,80.8836,-1000.65,0,0
102415,79.8611,-986.202,0,0
103717,78.9615,-970.473,0,0
105019,78.8717,-955.185,0,0
106320.175,79.6176,-939.269,0,0
107621.8,81.0388,-925.548,0,0
108923.425,80.8389,-911.528,0,0
110225.05,81.7395,-897.708,0,0
111526.675,81.6966,-884.82,0,0
112828.3,81.7946,-871.458,0,0
114129.925,81.4697,-858.499,0,0
115431.55,81.0889,-845.152,0,0
116733.175,80.3741,-832.09,0,0
118034.8,80.021,-817.978,0,0
119336.425,80.5906,-804.763,0,0
120638.05,80.2093,-791.561,0,0
121939.675,80.215,-777.857,0,0
123241,80.6404,-764.641,0,0
124543,80.6787,-750.621,0,0
125845,82.172,-736.809,0,0
127146,83.6392,-724.043,0,0
128448,84.6966,-711.699,0,0
129749,84.9249,-698.915,0,0
131051,86.1388,-685.132,0,0
132353,87.2245,-672.642,0,0
133654,88.5425,-658.77,0,0
134956,90.1034,-644.951,0,0
136258,93.5985,-631.677,0,0
137559,94.9637,-621.138,0,0
138860.775,93.796,-607.077,0,0
140162.4,95.1861,-591.554,0,0
141464.025,96.9129,-575.655,0,0
142765.65,99.779,-558.736,0,0
144067.275,103.955,-541.18,0,0
145368.9,110.315,-521.851,0,0
146670.525,120.835,-504.987,0,0
147972.15,131.169,-490.988,0,0
149273.775,139.356,-473.423,0,0
150575.4,155.226,-454.779,0,0
151877.025,179.785,-444.239,0,0
153178.65,194.112,-446.559,0,0
154480,202.583,-443.098,0,0
155782,213.506,-436.054,0,0
157084,222.968,-441.213,0,0
158385,220.379,-429.665,0,0
159687,234.55,-418.503,0,0
160988,239.935,-418.513,0,0
162290,248.149,-404.915,0,0
163592,265.929,-400.455,0,0
164893,275.839,-405.269,0,0
166195,279.615,-412.015,0,0
167497,268.859,-410.602,0,0
168798,260.979,-396.446,0,0
170100,260.865,-376.022,0,0
171401.375,265.422,-353.848,0,0
172703.0,277.394,-328.934,0,0
174004.625,296.94,-308.812,0,0
175306.25,317.342,-295.114,0,0
176607.875,334.569,-277.212,0,0
177909.5,360.8,-259.501,0,0
179211.125,393.561,-244.477,0,0
180512.75,429.871,-240.178,0,0
181814.375,460.239,-240.278,0,0
183116.0,492.976,-240.984,0,0
184417.625,519.431,-244.839,0,0
185719.25,550.581,-243.071,0,0
187021,593.877,-243.693,0,0
188322,637.249,-255.264,0,0
189624,682.705,-280.769,0,0
190926,714.051,-305.406,0,0
192227,760.561,-326.841,0,0
193529,805.506,-361.351,0,0
194831,867.565,-418.332,0,0
196132,903.169,-508.187,0,0
197434,907.546,-613.192,0,0
198735,871.711,-707.779,0,0
200037,817.363,-780.626,0,0
201339,743.212,-828.467,0,0
202640.35,676.105,-851.369,0,0
203941.975,610.611,-852.307,0,0
205243.6,560.719,-839.057,0,0
206545.225,521.792,-820.399,0,0
207846.85,500.707,-794.279,0,0
209148.475,491.289,-778.3,0,0
210450.1,486.79,-765.548,0,0
211751.725,487.387,-760.006,0,0
213053.35,488.998,-762.919,0,0
214354.975,484.703,-773.153,0,0
215656.6,471.223,-782.004,0,0
216958.225,455.219,-781.992,0,0
218259.85,449.027,-776.514,0,0
219561,448.259,-779.405,0,0
220863,445.872,-786.675,0,0
222165,441.331,-798.151,0,0
223466,430.259,-813.211,0,0
224768,415.849,-824.666,0,0
226070,397.365,-838.56,0,0
227371,371.876,-846.778,0,0
228673,345.547,-846.943,0,0
229974,325.383,-844.236,0,0
231276,302.851,-843.384,0,0
232578,278.778,-836.41,0,0
233879,257.152,-825.343,0,0
235180.95,238.222,-811.041,0,0
236482.575,224.411,-794.183,0,0
237784.2,215.693,-778.293,0,0
239085.825,209.889,-764.524,0,0
240387.45,206.993,-755.324,0,0
241689.075,199.672,-749.513,0,0
242990.7,188.912,-741.253,0,0
244292.325,179.06,-728.533,0,0
245593.95,172.589,-714.14,0,0
246895.575,169.937,-699.618,0,0
248197.2,168.747,-689.323,0,0
249498.825,165.029,-677.987,0,0
250800,164.094,-663.981,0,0
252102,167.471,-650.49,0,0
253404,174.583,-641.57,0,0
254705,178.201,-637.315,0,0
256007,179.713,-630.996,0,0
257309,183.372,-624.127,0,0
258610,188.404,-617.913,0,0
259912,194.878,-614.326,0,0
261213,200.749,-613.29,0,0
262515,205.254,-613.493,0,0
263817,207.91,-613.964,0,0
265118,209.629,-613.19,0,0
266420,214.607,-609.838,0,0
267721.55,225.142,-609.451,0,0
269023.175,238.18,-617.881,0,0
270324.8,245.506,-634.854,0,0
271626.425,244.381,-656.228,0,0
272928.05,232.448,-676.889,0,0
274229.675,211.353,-690.607,0,0
275531.3,187.169,-693.931,0,0
276832.925,167.202,-688.395,0,0
278134.55,151.756,-680.263,0,0
279436.175,139.603,-670.195,0,0
280737.8,131.435,-658.345,0,0
282039.425,128.049,-648.201,0,0
283341,126.024,-641.076,0,0
284643,123.282,-634.703,0,0
285944,122.448,-627.985,0,0
287246,125.314,-624.591,0,0
288548,124.769,-628.312,0,0
289849,117.374,-630.474,0,0
291151,108.595,-628.348,0,0
292452,100.804,-624.964,0,0
293754,92.5667,-619.506,0,0
295056,85.8487,-612.488,0,0
296357,80.4031,-604.987,0,0
297659,76.1948,-597.049,0,0
298960.525,73.0013,-589.169,0,0
300262.15,70.7891,-581.287,0,0
301563.775,69.7073,-573.517,0,0
302865.4,70.0838,-566.572,0,0
304167.025,70.7864,-561.067,0,0
305468.65,71.3286,-556.227,0,0
306770.275,72.3681,-552.162,0,0
308071.9,72.9403,-549.259,0,0
309373.525,72.89,-547.3,0,0
310675.15,71.2266,-545.19,0,0
311976.775,69.5622,-542.314,0,0
313278.4,67.8077,-539.554,0,0
314580,65.4139,-536.576,0,0
315882,63.0905,-532.557,0,0
317183,61.5667,-528.181,0,0
318485,60.7652,-524.055,0,0
319787,60.2809,-520.393,0,0
321088,59.8631,-517.561,0,0
322390,58.7656,-515.15,0,0
323691,57.2542,-512.577,0,0
324993,55.1748,-510.083,0,0
326295,52.8079,-506.774,0,0
327596,50.7424,-502.932,0,0
328898,48.8359,-498.937,0,0
330200,47.3196,-494.821,0,0
331501.125,46.0387,-490.602,0,0
332802.75,44.9161,-486.273,0,0
334104.375,44.1963,-481.881,0,0
335406.0,43.9647,-477.594,0,0
336707.625,44.0536,-473.957,0,0
338009.25,44.038,-470.603,0,0
339310.875,43.8074,-467.593,0,0
340612.5,43.2507,-464.649,0,0
341914.125,42.4215,-461.492,0,0
343215.75,41.6468,-458.017,0,0
344517.375,40.9778,-454.31,0,0
345819.0,40.5854,-450.669,0,0
347121,40.4458,-446.935,0,0
348422,40.5007,-443.246,0,0
349724,40.8066,-439.745,0,0
351025,41.2585,-436.538,0,0
352327,41.7576,-433.527,0,0
353629,42.0977,-430.656,0,0
354930,42.5249,-427.827,0,0
356232,42.9423,-425.367,0,0
357534,43.0359,-423.089,0,0
358835,42.8363,-420.583,0,0
360137,42.5986,-417.805,0,0
361438,42.5675,-414.893,0,0
362740.1,42.6825,-411.94,0,0
364041.725,42.9248,-408.882,0,0
365343.35,43.5052,-405.931,0,0
366644.975,44.3372,-403.283,0,0
367946.6,44.9718,-400.885,0,0
369248.225,45.5011,-398.303,0,0
370549.85,46.6421,-395.697,0,0
371851.475,48.0426,-393.983,0,0
373153.1,48.7852,-392.704,0,0
374454.725,49.038,-391.423,0,0
375756.35,49.0755,-389.827,0,0
377057.975,49.3317,-388.13,0,0
378359.6,49.5158,-386.853,0,0
379661,49.0239,-385.232,0,0
380963,49.286,-382.988,0,0
382264,49.9885,-382.272,0,0
383566,48.9614,-381.769,0,0
384868,47.35,-380.179,0,0
386169,45.9253,-377.744,0,0
387471,45.0171,-374.88,0,0
388773,44.5718,-371.89,0,0
390074,44.566,-369.007,0,0
391376,44.6463,-366.537,0,0
392677,44.5759,-364.031,0,0
393979,44.5773,-361.452,0,0
395280.7,44.6775,-358.797,0,0
396582.325,44.9922,-356.243,0,0
397883.95,45.3801,-353.839,0,0
399185.575,45.6077,-351.611,0,0
400006.6,45.6522,-350.164,0,0