Folder: ML_Dmg_Mehdi_Dataset/Accelerated corrosion test data/2025-10-22_06-00-04 (part 2)

File: sample_3.csv
Frequency (Hz),Impedance (ohms),Phase (Radians),Temperature (C),Humidity (%)
10000.0,251.944,-11901.5,0,0
11301.625,224.452,-10541.8,0,0
12603.25,203.442,-9460.88,0,0
13904.875,186.266,-8579.54,0,0
15206.5,175.275,-7840.4,0,0
16508.125,161.992,-7241.79,0,0
17809.75,157.137,-6709.98,0,0
19111.375,146.185,-6254.71,0,0
20413.0,166.481,-5850.45,0,0
21714.625,139.866,-5525.17,0,0
23016.25,128.307,-5216.93,0,0
24317.875,120.182,-4935.06,0,0
25619.5,114.418,-4685.18,0,0
26921.1,109.215,-4452.43,0,0
28222.7,104.532,-4243.33,0,0
29524.4,108.617,-4065.37,0,0
30826,102.079,-3892.21,0,0
32127.6,102.476,-3725.47,0,0
33429.2,99.5109,-3601.35,0,0
34730.9,88.0927,-3461.43,0,0
36032.5,83.6025,-3332.05,0,0
37334.1,80.4171,-3213.18,0,0
38635.7,77.9448,-3102.03,0,0
39937.4,75.8208,-2998.71,0,0
41239,74.5864,-2900.61,0,0
42540.6,73.2828,-2810.35,0,0
43842.225,71.9447,-2723.77,0,0
45143.85,71.2616,-2643.52,0,0
46445.475,69.9075,-2567.28,0,0
47747.1,70.246,-2494.12,0,0
49048.725,68.5934,-2427.81,0,0
50350.35,66.5197,-2362.21,0,0
51651.975,66.2123,-2298.81,0,0
52953.6,66.3646,-2238.55,0,0
54255.225,68.9279,-2182.97,0,0
55556.85,66.7307,-2134.84,0,0
56858.475,61.7523,-2081.81,0,0
58160.1,61.0637,-2029.39,0,0
59461.7,61.644,-1979.63,0,0
60763.3,62.9308,-1932.64,0,0
62065,64.6943,-1887.28,0,0
63366.6,68.7427,-1842.81,0,0
64668.2,77.4604,-1800.77,0,0
65969.8,91.5198,-1775.28,0,0
67271.5,75.6476,-1749.2,0,0
68573.1,76.0758,-1711.26,0,0
69874.7,76.7562,-1681.56,0,0
71176.3,71.5658,-1651.36,0,0
72478,70.4932,-1618.23,0,0
73779.6,69.0509,-1589.95,0,0
75081.2,65.4505,-1561.97,0,0
76382.825,61.6225,-1532.79,0,0
77684.45,58.8123,-1503.81,0,0
78986.075,56.3582,-1475.11,0,0
80287.7,54.6383,-1446.73,0,0
81589.325,53.5687,-1419.24,0,0
82890.95,52.9339,-1392.56,0,0
84192.575,52.5911,-1366.66,0,0
85494.2,52.4261,-1341.5,0,0
86795.825,52.455,-1317.03,0,0
88097.45,52.8783,-1293.02,0,0
89399.075,54.2282,-1269.05,0,0
90700.7,56.2396,-1247.3,0,0
92002.3,58.1019,-1226.38,0,0
93303.9,60.6195,-1206.88,0,0
94605.6,61.2765,-1192,0,0
95907.2,56.3756,-1173.69,0,0
97208.8,55.2572,-1152.2,0,0
98510.4,55.0357,-1132.08,0,0
99812.1,54.8763,-1112.74,0,0
101114,54.6494,-1092.84,0,0
102415,56.2123,-1072.29,0,0
103717,59.9498,-1054.37,0,0
105019,63.1366,-1039.95,0,0
106320.175,63.1991,-1025.85,0,0
107621.8,61.5266,-1010.46,0,0
108923.425,59.6027,-993.345,0,0
110225.05,59.4578,-975.071,0,0
111526.675,61.5742,-956.93,0,0
112828.3,63.5712,-940.963,0,0
114129.925,64.8899,-925.081,0,0
115431.55,66.466,-908.062,0,0
116733.175,69.8007,-891.211,0,0
118034.8,75.7593,-874.496,0,0
119336.425,82.3662,-862.017,0,0
120638.05,89.9124,-855.895,0,0
121939.675,85.7929,-847.517,0,0
123241,86.3247,-833.494,0,0
124543,88.343,-821.507,0,0
125845,90.4404,-810.683,0,0
127146,90.6349,-801.028,0,0
128448,89.8653,-790.761,0,0
129749,88.6743,-778.566,0,0
131051,89.5504,-766.605,0,0
132353,88.5566,-755.792,0,0
133654,87.2919,-744.19,0,0
134956,85.8217,-731.535,0,0
136258,84.2499,-718.319,0,0
137559,83.5212,-703.093,0,0
138860.775,84.8912,-689.543,0,0
140162.4,84.2855,-676.484,0,0
141464.025,83.0617,-662.649,0,0
142765.65,82.062,-646.509,0,0
144067.275,82.1358,-629.265,0,0
145368.9,83.6725,-611.163,0,0
146670.525,86.0239,-592.387,0,0
147972.15,90.047,-572.606,0,0
149273.775,96.0476,-552.23,0,0
150575.4,106.071,-532.05,0,0
151877.025,118.453,-514.758,0,0
153178.65,130.04,-500.997,0,0
154480,139.997,-487.555,0,0
155782,149.703,-472.022,0,0
157084,161.248,-454.94,0,0
158385,176.398,-444.481,0,0
159687,181.268,-429.519,0,0
160988,193.816,-405.112,0,0
162290,215.674,-378.802,0,0
163592,247.549,-352.494,0,0
164893,296.834,-337.73,0,0
166195,351.122,-344.332,0,0
167497,393.632,-376.281,0,0
168798,413.572,-413.323,0,0
170100,415.639,-448.322,0,0
171401.375,407.487,-462.714,0,0
172703.0,409.307,-467.999,0,0
174004.625,414.742,-481.541,0,0
175306.25,421.134,-496.075,0,0
176607.875,423.149,-524.219,0,0
177909.5,394.056,-543.326,0,0
179211.125,369.483,-533.154,0,0
180512.75,365.773,-520.251,0,0
181814.375,370.81,-515.81,0,0
183116.0,370.282,-522.721,0,0
184417.625,355.603,-526.558,0,0
185719.25,337.888,-518.433,0,0
187021,329.708,-496.831,0,0
188322,330.307,-479.803,0,0
189624,332.57,-460.289,0,0
190926,342.608,-445.243,0,0
192227,350.236,-430.964,0,0
193529,361.883,-411.965,0,0
194831,382.032,-395.519,0,0
196132,412.328,-384.083,0,0
197434,439.04,-393.299,0,0
198735,450.391,-401.924,0,0
200037,458.774,-402.943,0,0
201339,468.076,-394.354,0,0
202640.35,493.863,-385.242,0,0
203941.975,522.061,-387.629,0,0
205243.6,547.264,-402.662,0,0
206545.225,557.656,-412.193,0,0
207846.85,582.87,-408.873,0,0
209148.475,619.494,-421.254,0,0
210450.1,651.403,-444.814,0,0
211751.725,678.658,-476.054,0,0
213053.35,701.842,-512.632,0,0
214354.975,713.8,-557.599,0,0
215656.6,719.776,-600.201,0,0
216958.225,716.761,-644.769,0,0
218259.85,707.172,-687.347,0,0
219561,690.777,-725.28,0,0
220863,674.782,-762.446,0,0
222165,646.663,-805.474,0,0
223466,599.701,-833.035,0,0
224768,558.728,-837.466,0,0
226070,534.756,-836.706,0,0
227371,517.343,-845.82,0,0
228673,490.839,-856.426,0,0
229974,465.437,-863.096,0,0
231276,436.453,-867.423,0,0
232578,409.622,-865.788,0,0
233879,385.337,-862.895,0,0
235180.95,362.791,-859.751,0,0
236482.575,337.853,-855.582,0,0
237784.2,313.339,-847.537,0,0
239085.825,290.45,-835.199,0,0
240387.45,270.933,-820.065,0,0
241689.075,254.081,-801.953,0,0
242990.7,245.268,-782.639,0,0
244292.325,239.154,-769.727,0,0
245593.95,231.481,-756.55,0,0
246895.575,226.213,-743.223,0,0
248197.2,221.677,-730.333,0,0
249498.825,221.525,-719.044,0,0
250800,219.721,-712.183,0,0
252102,214.899,-705.749,0,0
253404,207.982,-696.739,0,0
254705,202.136,-683.351,0,0
256007,200.786,-667.389,0,0
257309,205.907,-652.75,0,0
258610,213.93,-641.005,0,0
259912,226.545,-632.312,0,0
261213,244.244,-633.393,0,0
262515,253.356,-647.301,0,0
263817,250.728,-661.068,0,0
265118,242.053,-670.504,0,0
266420,228.277,-675.952,0,0
267721.55,213.206,-672.908,0,0
269023.175,201.676,-664.643,0,0
270324.8,194.958,-653.98,0,0
271626.425,192.688,-644.438,0,0
272928.05,190.612,-636.693,0,0
274229.675,189.853,-627.48,0,0
275531.3,192.417,-618.014,0,0
276832.925,199.183,-611.439,0,0
278134.55,207.237,-609.962,0,0
279436.175,214.001,-614.077,0,0
280737.8,215.343,-621.955,0,0
282039.425,211.036,-628.843,0,0
283341,203.623,-632.205,0,0
284643,195.576,-632.387,0,0
285944,188.31,-629.773,0,0
287246,182.606,-625.492,0,0
288548,178.733,-620.49,0,0
289849,177.665,-616.455,0,0
291151,175.834,-615.126,0,0
292452,171.41,-613.412,0,0
293754,167.444,-608.525,0,0
295056,167.142,-602.854,0,0
296357,169.129,-600.746,0,0
297659,169.493,-601.702,0,0
298960.525,167.559,-603.422,0,0
300262.15,163.476,-605.034,0,0
301563.775,157.663,-605.347,0,0
302865.4,151.229,-603.516,0,0
304167.025,145.514,-600.314,0,0
305468.65,140.561,-596.035,0,0
306770.275,136.599,-591.348,0,0
308071.9,133.828,-586.479,0,0
309373.525,132.286,-582.339,0,0
310675.15,130.785,-579.843,0,0
311976.775,127.523,-578.063,0,0
313278.4,122.772,-574.793,0,0
314580,118.654,-569.277,0,0
315882,116.856,-562.815,0,0
317183,116.769,-557.387,0,0
318485,117.242,-553.291,0,0
319787,117.477,-550.339,0,0
321088,117.437,-547.025,0,0
322390,118.853,-544.368,0,0
323691,120.388,-544.295,0,0
324993,119.583,-545.813,0,0
326295,116.599,-547.077,0,0
327596,112.093,-546.95,0,0
328898,107.257,-545.168,0,0
330200,103.079,-542.713,0,0
331501.125,98.7436,-539.994,0,0
332802.75,94.2571,-536.493,0,0
334104.375,89.9127,-532.211,0,0
335406.0,85.8788,-527.015,0,0
336707.625,82.7224,-521.02,0,0
338009.25,80.7473,-514.908,0,0
339310.875,79.112,-508.776,0,0
340612.5,78.5138,-501.843,0,0
341914.125,80.0426,-495.261,0,0
343215.75,82.9006,-490.87,0,0
344517.375,85.2271,-488.636,0,0
345819.0,85.873,-487.392,0,0
347121,85.1525,-485.846,0,0
348422,83.7223,-483.09,0,0
349724,82.9695,-479.054,0,0
351025,84.1216,-475.078,0,0
352327,85.7012,-472.995,0,0
353629,86.1988,-472.231,0,0
354930,85.1393,-471.165,0,0
356232,83.5967,-469.365,0,0
357534,81.8652,-466.485,0,0
358835,81.2526,-462.889,0,0
360137,81.3562,-459.93,0,0
361438,80.971,-457.62,0,0
362740.1,80.1577,-454.43,0,0
364041.725,80.7876,-450.765,0,0
365343.35,82.4622,-448.467,0,0
366644.975,83.5074,-447.932,0,0
367946.6,82.2744,-448.013,0,0
369248.225,79.5316,-445.6,0,0
370549.85,79.0549,-441.398,0,0
371851.475,80.4233,-438.988,0,0
373153.1,80.5881,-438.389,0,0
374454.725,78.84,-437.074,0,0
375756.35,77.1869,-434.329,0,0
377057.975,76.3361,-430.892,0,0
378359.6,76.5235,-427.293,0,0
379661,77.873,-424.68,0,0
380963,78.4815,-423.437,0,0
382264,78.3035,-422.037,0,0
383566,77.95,-420.824,0,0
384868,76.7538,-419.4,0,0
386169,75.2791,-417.22,0,0
387471,73.7597,-414.369,0,0
388773,72.6833,-410.59,0,0
390074,72.5703,-406.282,0,0
391376,73.8737,-402.004,0,0
392677,76.1203,-398.905,0,0
393979,78.3233,-396.794,0,0
395280.7,80.4901,-395.371,0,0
396582.325,82.518,-394.859,0,0
397883.95,83.7606,-395.064,0,0
399185.575,84.1916,-395.62,0,0
400006.6,83.8469,-396.014,0,0

File: sample_4.csv
Frequency (Hz),Impedance (ohms),Phase (Radians),Temperature (C),Humidity (%)
10000.0,262.921,-11933.1,0,0
11301.625,233.446,-10571.4,0,0
12603.25,213.605,-9483.44,0,0
13904.875,193.351,-8597.93,0,0
15206.5,180.298,-7868.9,0,0
16508.125,188.506,-7259.09,0,0
17809.75,155.348,-6743.64,0,0
19111.375,144.871,-6283.99,0,0
20413.0,140.171,-5880.56,0,0
21714.625,147.719,-5535.28,0,0
23016.25,124.946,-5233.06,0,0
24317.875,115.35,-4947.44,0,0
25619.5,111.466,-4692.82,0,0
26921.1,106.035,-4461.63,0,0
28222.7,120.807,-4258.38,0,0
29524.4,112.527,-4078.95,0,0
30826,98.0051,-3905.08,0,0
32127.6,99.9915,-3743.65,0,0
33429.2,89.0235,-3602.68,0,0
34730.9,84.1547,-3463.31,0,0
36032.5,81.2017,-3335.29,0,0
37334.1,79.0473,-3215.8,0,0
38635.7,76.4231,-3103.63,0,0
39937.4,76.8619,-2996.55,0,0
41239,79.4713,-2902.72,0,0
42540.6,78.4136,-2813.99,0,0
43842.225,72.8944,-2729.96,0,0
45143.85,70.8082,-2648.68,0,0
46445.475,70.3015,-2571.15,0,0
47747.1,69.6671,-2500.66,0,0
49048.725,65.8159,-2431.39,0,0
50350.35,63.9332,-2363.65,0,0
51651.975,63.1799,-2298.8,0,0
52953.6,64.8142,-2235.55,0,0
54255.225,72.97,-2178.71,0,0
55556.85,71.4494,-2135.43,0,0
56858.475,65.0833,-2081.19,0,0
58160.1,66.1847,-2028.69,0,0
59461.7,70.1706,-1977.85,0,0
60763.3,80.056,-1939.34,0,0
62065,69.6099,-1906.73,0,0
63366.6,63.1169,-1860.8,0,0
64668.2,63.7154,-1817.06,0,0
65969.8,65.8844,-1775.79,0,0
67271.5,69.8198,-1739.3,0,0
68573.1,73.4012,-1710.23,0,0
69874.7,66.2232,-1680.55,0,0
71176.3,64.3363,-1646.24,0,0
72478,58.6817,-1614.25,0,0
73779.6,57.2847,-1578.25,0,0
75081.2,59.2229,-1544.71,0,0
76382.825,61.7422,-1515.6,0,0
77684.45,64.8874,-1487.83,0,0
78986.075,63.7086,-1465.33,0,0
80287.7,60.9352,-1438.45,0,0
81589.325,60.4345,-1412.45,0,0
82890.95,59.1405,-1387.56,0,0
84192.575,57.8138,-1362.7,0,0
85494.2,56.8444,-1338.36,0,0
86795.825,55.9341,-1314.66,0,0
88097.45,54.4118,-1291.66,0,0
89399.075,53.2953,-1267.46,0,0
90700.7,53.1518,-1244.13,0,0
92002.3,53.572,-1221,0,0
93303.9,54.8173,-1200,0,0
94605.6,53.4356,-1179.99,0,0
95907.2,52.5886,-1157.47,0,0
97208.8,53.2151,-1135.73,0,0
98510.4,54.4629,-1114.13,0,0
99812.1,56.791,-1093.14,0,0
101114,60.7132,-1074.67,0,0
102415,59.87,-1059.66,0,0
103717,57.4086,-1036.97,0,0
105019,60.7271,-1013.33,0,0
106320.175,67.0844,-992.467,0,0
107621.8,73.7138,-974.28,0,0
108923.425,82.0268,-957.04,0,0
110225.05,90.5748,-943.789,0,0
111526.675,96.9631,-932.832,0,0
112828.3,102.56,-922.614,0,0
114129.925,106.475,-913.79,0,0
115431.55,108.833,-905.697,0,0
116733.175,109.038,-897.315,0,0
118034.8,107.435,-887.007,0,0
119336.425,108.698,-873.766,0,0
120638.05,113.742,-868.938,0,0
121939.675,106.393,-863.002,0,0
123241,101.459,-850.688,0,0
124543,98.4497,-837.595,0,0
125845,97.269,-825.775,0,0
127146,94.3164,-815.525,0,0
128448,88.9805,-805.51,0,0
129749,81.2153,-790.853,0,0
131051,75.7085,-773.063,0,0
132353,72.7286,-754.196,0,0
133654,71.4659,-735.257,0,0
134956,71.7713,-716.298,0,0
136258,73.4225,-697.736,0,0
137559,75.3645,-680.142,0,0
138860.775,77.2916,-661.539,0,0
140162.4,80.759,-642.464,0,0
141464.025,85.8167,-623.334,0,0
142765.65,91.6732,-605.144,0,0
144067.275,98.1641,-586.97,0,0
145368.9,105.476,-568.513,0,0
146670.525,114.371,-549.879,0,0
147972.15,124.616,-531.541,0,0
149273.775,136.276,-513.443,0,0
150575.4,150.602,-494.587,0,0
151877.025,168.679,-476.986,0,0
153178.65,191.279,-463.82,0,0
154480,213.299,-458.142,0,0
155782,231.022,-454.208,0,0
157084,246.949,-451.035,0,0
158385,262.071,-446.868,0,0
159687,282.267,-445.85,0,0
160988,296.854,-450.34,0,0
162290,307.075,-455.217,0,0
163592,311.284,-456.939,0,0
164893,317.342,-449.223,0,0
166195,333.099,-437.904,0,0
167497,361.507,-436.119,0,0
168798,390.09,-447.679,0,0
170100,413.754,-476.629,0,0
171401.375,414.205,-516.477,0,0
172703.0,391.86,-548.224,0,0
174004.625,358.079,-558.392,0,0
175306.25,327.195,-550.823,0,0
176607.875,306.044,-530.013,0,0
177909.5,296.482,-506.33,0,0
179211.125,294.941,-483.023,0,0
180512.75,298.694,-463.876,0,0
181814.375,302.774,-447.71,0,0
183116.0,305.194,-431.485,0,0
184417.625,308.634,-411.215,0,0
185719.25,315.679,-389.64,0,0
187021,324.373,-365.371,0,0
188322,338.39,-338.038,0,0
189624,358.233,-308.816,0,0
190926,386.468,-278.686,0,0
192227,424.633,-249.914,0,0
193529,472.648,-227.296,0,0
194831,527.468,-212.288,0,0
196132,589.616,-203.528,0,0
197434,662.681,-204.74,0,0
198735,746.887,-222.332,0,0
200037,837.568,-272.822,0,0
201339,910.733,-356.642,0,0
202640.35,952.88,-457.741,0,0
203941.975,964.798,-565.65,0,0
205243.6,949.714,-664.55,0,0
206545.225,915.988,-754.909,0,0
207846.85,858.291,-832.602,0,0
209148.475,785.496,-884.379,0,0
210450.1,715.433,-907.35,0,0
211751.725,656.66,-914.149,0,0
213053.35,606.976,-912.092,0,0
214354.975,572.313,-900.969,0,0
215656.6,549.304,-899.479,0,0
216958.225,522.934,-900.119,0,0
218259.85,499.511,-900.213,0,0
219561,475.802,-902.288,0,0
220863,449.413,-901.36,0,0
222165,426.188,-897.417,0,0
223466,406.693,-892.046,0,0
224768,388.044,-891.229,0,0
226070,366.149,-891.184,0,0
227371,340.616,-888.4,0,0
228673,313.844,-879.64,0,0
229974,290.729,-865.747,0,0
231276,271.028,-849.807,0,0
232578,255.634,-833.051,0,0
233879,242.613,-815.74,0,0
235180.95,233.371,-799.374,0,0
236482.575,224.754,-784.064,0,0
237784.2,218.881,-768.038,0,0
239085.825,215.605,-753.713,0,0
240387.45,213.606,-741.486,0,0
241689.075,212.492,-731.549,0,0
242990.7,210.447,-723.916,0,0
244292.325,206.488,-717.212,0,0
245593.95,200.779,-709.21,0,0
246895.575,195.301,-699.185,0,0
248197.2,191.414,-687.856,0,0
249498.825,189.764,-676.703,0,0
250800,188.908,-667.778,0,0
252102,186.068,-659.208,0,0
253404,183.128,-648.735,0,0
254705,179.742,-637.178,0,0
256007,177.888,-621.647,0,0
257309,180.381,-603.681,0,0
258610,188.64,-585.534,0,0
259912,203.118,-570.507,0,0
261213,220.787,-560.031,0,0
262515,242.404,-554.673,0,0
263817,264.4,-559.818,0,0
265118,280.498,-568.501,0,0
266420,297.195,-580.592,0,0
267721.55,309.778,-602.268,0,0
269023.175,309.645,-628.338,0,0
270324.8,298.585,-647.235,0,0
271626.425,287.571,-659.889,0,0
272928.05,273.857,-669.399,0,0
274229.675,262.024,-676.946,0,0
275531.3,245.442,-684.814,0,0
276832.925,223.532,-685.816,0,0
278134.55,203.737,-675.718,0,0
279436.175,195.264,-660.982,0,0
280737.8,191.582,-652.54,0,0
282039.425,188.594,-644.036,0,0
283341,188.635,-638.203,0,0
284643,187.564,-636.943,0,0
285944,181.184,-636.515,0,0
287246,173.683,-630.175,0,0
288548,167.443,-620.301,0,0
289849,167.681,-607.061,0,0
291151,175.863,-596.731,0,0
292452,187.497,-594.818,0,0
293754,196.769,-600.935,0,0
295056,199.366,-612.774,0,0
296357,192.799,-623.23,0,0
297659,182.714,-627.912,0,0
298960.525,173.25,-629.027,0,0
300262.15,164.104,-628.172,0,0
301563.775,155.751,-625.544,0,0
302865.4,148.197,-622.321,0,0
304167.025,140.834,-617.73,0,0
305468.65,134.725,-612.194,0,0
306770.275,129.941,-605.844,0,0
308071.9,127.221,-599.877,0,0
309373.525,124.91,-595.794,0,0
310675.15,121.563,-591.735,0,0
311976.775,118.502,-586.98,0,0
313278.4,116.423,-581.995,0,0
314580,115.048,-578.048,0,0
315882,113.435,-574.312,0,0
317183,112.207,-571.172,0,0
318485,111.216,-568.784,0,0
319787,109.563,-567.789,0,0
321088,105.924,-567.26,0,0
322390,100.384,-565.844,0,0
323691,93.7721,-561.825,0,0
324993,88.5635,-555.956,0,0
326295,84.7192,-549.426,0,0
327596,81.8123,-542.924,0,0
328898,79.3436,-535.9,0,0
330200,78.5917,-528.357,0,0
331501.125,79.7454,-521.896,0,0
332802.75,81.4896,-517.95,0,0
334104.375,81.4713,-515.313,0,0
335406.0,79.9013,-512.111,0,0
336707.625,78.0878,-507.944,0,0
338009.25,76.3536,-502.92,0,0
339310.875,75.2939,-496.549,0,0
340612.5,76.0143,-489.835,0,0
341914.125,78.7646,-483.762,0,0
343215.75,82.7844,-479.73,0,0
344517.375,86.5109,-477.959,0,0
345819.0,88.785,-477.681,0,0
347121,89.4676,-477.941,0,0
348422,88.7717,-477.551,0,0
349724,87.4402,-476.814,0,0
351025,85.3145,-475.26,0,0
352327,83.2834,-472.338,0,0
353629,82.3381,-468.988,0,0
354930,81.4727,-465.964,0,0
356232,80.9064,-462.608,0,0
357534,80.8644,-459.612,0,0
358835,80.3014,-457.159,0,0
360137,79.1905,-454.174,0,0
361438,78.5179,-450.233,0,0
362740.1,78.4414,-446.458,0,0
364041.725,78.6026,-442.666,0,0
365343.35,78.9062,-438.898,0,0
366644.975,79.3517,-434.759,0,0
367946.6,80.6558,-429.914,0,0
369248.225,83.249,-425.252,0,0
370549.85,87.5198,-420.986,0,0
371851.475,93.6012,-419.004,0,0
373153.1,99.1445,-420.351,0,0
374454.725,101.888,-423.677,0,0
375756.35,102.34,-426.391,0,0
377057.975,101.499,-428.181,0,0
378359.6,100.802,-428.69,0,0
379661,100.296,-429.541,0,0
380963,98.8242,-429.96,0,0
382264,98.3407,-429.836,0,0
383566,98.0851,-430.614,0,0
384868,96.8662,-433.089,0,0
386169,92.6085,-435.059,0,0
387471,87.1295,-434.163,0,0
388773,83.1643,-430.649,0,0
390074,81.8704,-427.089,0,0
391376,81.4521,-425.739,0,0
392677,79.5223,-425.54,0,0
393979,76.0694,-424.755,0,0
395280.7,71.9983,-422.577,0,0
396582.325,68.2815,-419.187,0,0
397883.95,65.0461,-414.909,0,0
399185.575,62.5871,-409.88,0,0
400006.6,61.5935,-406.499,0,0