Folder: ML_Dmg_Mehdi_Dataset/Accelerated corrosion test data/2025-10-12_18-00-03 (part 2)

File: sample_3.csv
Frequency (Hz),Impedance (ohms),Phase (Radians),Temperature (C),Humidity (%)
10000.0,257.632,-11683.3,0,0
11301.625,229.742,-10349.7,0,0
12603.25,207.781,-9288.94,0,0
13904.875,189.071,-8424.94,0,0
15206.5,176.969,-7700.9,0,0
16508.125,165.117,-7111.2,0,0
17809.75,160.327,-6588.24,0,0
19111.375,149.142,-6141.35,0,0
20413.0,161.749,-5747.77,0,0
21714.625,140.636,-5424.62,0,0
23016.25,130.421,-5122.96,0,0
24317.875,121.725,-4846.09,0,0
25619.5,115.274,-4601.2,0,0
26921.1,110.058,-4373.31,0,0
28222.7,105.582,-4167.65,0,0
29524.4,109.855,-3993.26,0,0
30826,102.758,-3821.86,0,0
32127.6,103.313,-3658.83,0,0
33429.2,100.092,-3535.87,0,0
34730.9,88.9633,-3398.72,0,0
36032.5,84.5793,-3272.02,0,0
37334.1,81.661,-3155.39,0,0
38635.7,79.5081,-3046.7,0,0
39937.4,76.9898,-2945.09,0,0
41239,75.3984,-2848.83,0,0
42540.6,74.4421,-2759.63,0,0
43842.225,72.9931,-2675.04,0,0
45143.85,72.118,-2596.12,0,0
46445.475,70.7579,-2521.1,0,0
47747.1,71.261,-2449.31,0,0
49048.725,69.51,-2384.04,0,0
50350.35,67.5558,-2319.61,0,0
51651.975,67.2049,-2257.35,0,0
52953.6,67.4686,-2197.95,0,0
54255.225,70.7108,-2143.84,0,0
55556.85,67.566,-2097.15,0,0
56858.475,62.6032,-2044.5,0,0
58160.1,62.1057,-1992.99,0,0
59461.7,62.6508,-1944.07,0,0
60763.3,64.1577,-1897.75,0,0
62065,66.1824,-1853.46,0,0
63366.6,69.9921,-1810.29,0,0
64668.2,79.2829,-1769.31,0,0
65969.8,93.1657,-1745.63,0,0
67271.5,76.7185,-1719.25,0,0
68573.1,76.7963,-1682.42,0,0
69874.7,75.7327,-1653.71,0,0
71176.3,70.4024,-1622.83,0,0
72478,69.2,-1590.46,0,0
73779.6,67.1502,-1562.16,0,0
75081.2,63.6642,-1533.59,0,0
76382.825,60.3951,-1504.3,0,0
77684.45,58.1856,-1475.49,0,0
78986.075,56.2068,-1447.22,0,0
80287.7,54.7901,-1419.51,0,0
81589.325,53.8968,-1392.51,0,0
82890.95,53.3702,-1366.3,0,0
84192.575,53.2307,-1340.9,0,0
85494.2,53.2091,-1316.09,0,0
86795.825,53.4071,-1291.98,0,0
88097.45,54.0629,-1268.44,0,0
89399.075,55.4356,-1244.87,0,0
90700.7,57.8255,-1223.47,0,0
92002.3,60.207,-1203.3,0,0
93303.9,63.1477,-1184.81,0,0
94605.6,63.4996,-1170.45,0,0
95907.2,58.145,-1152.7,0,0
97208.8,56.8669,-1131.62,0,0
98510.4,56.6069,-1112.15,0,0
99812.1,55.9661,-1093.23,0,0
101114,55.6738,-1073.48,0,0
102415,57.0952,-1053.16,0,0
103717,60.8298,-1035.77,0,0
105019,63.6358,-1021.74,0,0
106320.175,63.1066,-1007.73,0,0
107621.8,60.9688,-992.044,0,0
108923.425,59.4163,-974.386,0,0
110225.05,59.737,-956.004,0,0
111526.675,62.0694,-938.339,0,0
112828.3,64.4327,-922.488,0,0
114129.925,66.2625,-906.615,0,0
115431.55,68.802,-890.004,0,0
116733.175,72.8794,-873.958,0,0
118034.8,78.8803,-858.841,0,0
119336.425,85.1835,-847.287,0,0
120638.05,90.5664,-841.36,0,0
121939.675,87.6102,-833.074,0,0
123241,88.146,-820.388,0,0
124543,89.1728,-809.397,0,0
125845,89.9639,-799.321,0,0
127146,88.7922,-789.373,0,0
128448,86.5712,-778.056,0,0
129749,85.1692,-764.468,0,0
131051,86.581,-751.649,0,0
132353,86.0689,-740.591,0,0
133654,85.2721,-729.069,0,0
134956,83.3895,-716.397,0,0
136258,81.6943,-702.622,0,0
137559,81.7372,-687.208,0,0
138860.775,82.9478,-673.589,0,0
140162.4,82.3234,-659.586,0,0
141464.025,82.0873,-645.221,0,0
142765.65,81.8075,-629.032,0,0
144067.275,82.4963,-611.822,0,0
145368.9,84.4987,-593.777,0,0
146670.525,87.4603,-574.907,0,0
147972.15,92.2916,-554.871,0,0
149273.775,99.519,-534.563,0,0
150575.4,110.915,-514.863,0,0
151877.025,123.93,-498.881,0,0
153178.65,136.558,-486.304,0,0
154480,145.819,-474.733,0,0
155782,153.987,-458.021,0,0
157084,166.334,-440.024,0,0
158385,182.349,-429.315,0,0
159687,187.094,-413.467,0,0
160988,205.366,-385.539,0,0
162290,233.762,-360.688,0,0
163592,272.501,-342.38,0,0
164893,322.705,-335.683,0,0
166195,373.277,-353.826,0,0
167497,407.341,-391.523,0,0
168798,423.332,-431.135,0,0
170100,412.537,-470.48,0,0
171401.375,393.956,-480.776,0,0
172703.0,389.312,-477.162,0,0
174004.625,398.619,-484.888,0,0
175306.25,399.531,-500.361,0,0
176607.875,396.328,-514.841,0,0
177909.5,376.721,-527.748,0,0
179211.125,358.29,-519.937,0,0
180512.75,354.27,-507.778,0,0
181814.375,359.013,-504.34,0,0
183116.0,351.379,-508.015,0,0
184417.625,338.247,-502.155,0,0
185719.25,328.235,-487.405,0,0
187021,327.859,-464.751,0,0
188322,338.071,-448.631,0,0
189624,344.761,-437.328,0,0
190926,353.975,-425.4,0,0
192227,362.384,-412.637,0,0
193529,375.131,-393.408,0,0
194831,401.496,-376.861,0,0
196132,436.867,-375.825,0,0
197434,458.329,-391.577,0,0
198735,470.359,-401.81,0,0
200037,477.188,-408.703,0,0
201339,480.89,-402.308,0,0
202640.35,500.943,-391.798,0,0
203941.975,531.954,-392.88,0,0
205243.6,559.698,-408.31,0,0
206545.225,571.066,-425.099,0,0
207846.85,589.42,-427.717,0,0
209148.475,618.351,-439.236,0,0
210450.1,647.505,-461.351,0,0
211751.725,671.098,-492.228,0,0
213053.35,690.351,-525.779,0,0
214354.975,704.05,-566.044,0,0
215656.6,711.192,-611.83,0,0
216958.225,705.465,-659.298,0,0
218259.85,690.279,-700.31,0,0
219561,670.851,-734.52,0,0
220863,650.031,-770.747,0,0
222165,619.917,-805.246,0,0
223466,575.818,-828.43,0,0
224768,537.741,-827.367,0,0
226070,520.756,-826.602,0,0
227371,504.573,-838.637,0,0
228673,478.495,-852.751,0,0
229974,449.613,-859.339,0,0
231276,420.729,-862.122,0,0
232578,393.537,-860.853,0,0
233879,367.607,-857.591,0,0
235180.95,342.857,-852.191,0,0
236482.575,317.577,-845.158,0,0
237784.2,292.749,-834.351,0,0
239085.825,270.268,-817.199,0,0
240387.45,255.051,-798.379,0,0
241689.075,243.062,-779.695,0,0
242990.7,237.25,-762.024,0,0
244292.325,233.969,-748.318,0,0
245593.95,230.115,-737.941,0,0
246895.575,225.753,-727.527,0,0
248197.2,221.758,-717.357,0,0
249498.825,220.11,-708.543,0,0
250800,216.331,-702.692,0,0
252102,209.495,-695.274,0,0
253404,202.31,-683.386,0,0
254705,199.096,-668.379,0,0
256007,201.273,-652.682,0,0
257309,209.351,-641.028,0,0
258610,216.921,-634.099,0,0
259912,227.85,-627.873,0,0
261213,241.624,-631.118,0,0
262515,247.642,-643.906,0,0
263817,242.802,-656.388,0,0
265118,230.661,-663.342,0,0
266420,217.11,-662.807,0,0
267721.55,205.612,-656.189,0,0
269023.175,198.963,-646.62,0,0
270324.8,195.445,-637.314,0,0
271626.425,195.889,-628.592,0,0
272928.05,197.198,-623.352,0,0
274229.675,198.075,-616.774,0,0
275531.3,202.967,-611.265,0,0
276832.925,210.194,-610.44,0,0
278134.55,215.489,-615.521,0,0
279436.175,215.571,-623.841,0,0
280737.8,209.412,-631.376,0,0
282039.425,199.915,-634.831,0,0
283341,189.677,-634.172,0,0
284643,180.049,-630.142,0,0
285944,172.547,-623.375,0,0
287246,168.046,-615.053,0,0
288548,167.227,-607.318,0,0
289849,167.91,-602.417,0,0
291151,168.275,-599.032,0,0
292452,167.393,-595.762,0,0
293754,168.436,-591.076,0,0
295056,172.337,-589.083,0,0
296357,175.624,-591.66,0,0
297659,175.09,-596.901,0,0
298960.525,170.371,-601.278,0,0
300262.15,163.7,-603.377,0,0
301563.775,156.318,-603.306,0,0
302865.4,149.137,-601.136,0,0
304167.025,142.725,-597.745,0,0
305468.65,137.247,-593.277,0,0
306770.275,133.258,-588.241,0,0
308071.9,130.679,-583.973,0,0
309373.525,127.894,-580.922,0,0
310675.15,124.281,-578.138,0,0
311976.775,119.663,-574.607,0,0
313278.4,115.138,-569.185,0,0
314580,112.238,-562.546,0,0
315882,111.75,-555.689,0,0
317183,113.133,-551.065,0,0
318485,113.68,-548.301,0,0
319787,113.329,-545.985,0,0
321088,112.976,-543.334,0,0
322390,113.422,-541.342,0,0
323691,113.273,-540.905,0,0
324993,111.789,-541.265,0,0
326295,108.488,-541.446,0,0
327596,104.109,-540.39,0,0
328898,99.882,-537.947,0,0
330200,95.8988,-535.085,0,0
331501.125,91.8147,-531.967,0,0
332802.75,87.671,-528.093,0,0
334104.375,83.525,-523.457,0,0
335406.0,80.1098,-517.673,0,0
336707.625,77.7699,-511.467,0,0
338009.25,76.196,-505.159,0,0
339310.875,75.4461,-498.644,0,0
340612.5,76.3378,-492.184,0,0
341914.125,78.8096,-487.049,0,0
343215.75,81.3356,-484.016,0,0
344517.375,82.7126,-482.374,0,0
345819.0,82.751,-480.774,0,0
347121,82.2325,-478.679,0,0
348422,81.3558,-476.123,0,0
349724,80.882,-472.549,0,0
351025,81.909,-469.104,0,0
352327,83.5946,-467.621,0,0
353629,83.3551,-467.485,0,0
354930,81.4948,-466.383,0,0
356232,79.5824,-464.035,0,0
357534,77.897,-460.966,0,0
358835,76.9373,-457.19,0,0
360137,76.9936,-453.731,0,0
361438,77.1117,-450.861,0,0
362740.1,77.1825,-447.962,0,0
364041.725,78.1638,-444.92,0,0
365343.35,79.8268,-443.686,0,0
366644.975,79.4734,-443.881,0,0
367946.6,77.1372,-442.934,0,0
369248.225,74.6861,-439.646,0,0
370549.85,74.7385,-435.134,0,0
371851.475,76.4849,-432.97,0,0
373153.1,76.3892,-432.78,0,0
374454.725,74.4424,-431.349,0,0
375756.35,72.5793,-428.335,0,0
377057.975,71.9298,-424.602,0,0
378359.6,72.3305,-421.116,0,0
379661,73.2218,-418.43,0,0
380963,74.0496,-416.779,0,0
382264,74.2078,-415.253,0,0
383566,74.0298,-413.961,0,0
384868,73.2028,-412.593,0,0
386169,72.0138,-410.654,0,0
387471,70.6301,-408.163,0,0
388773,69.4251,-404.963,0,0
390074,68.8911,-400.892,0,0
391376,69.5671,-396.55,0,0
392677,71.5463,-392.793,0,0
393979,74.1901,-390.358,0,0
395280.7,76.7004,-389.212,0,0
396582.325,78.6176,-389.048,0,0
397883.95,79.5774,-389.644,0,0
399185.575,79.0983,-390.114,0,0
400006.6,78.4527,-390.083,0,0

File: sample_4.csv
Frequency (Hz),Impedance (ohms),Phase (Radians),Temperature (C),Humidity (%)
10000.0,271.311,-11764.1,0,0
11301.625,240.429,-10422.7,0,0
12603.25,218.606,-9351.09,0,0
13904.875,198.177,-8479.58,0,0
15206.5,186.434,-7761.64,0,0
16508.125,188.672,-7154.74,0,0
17809.75,159.959,-6649.83,0,0
19111.375,148.851,-6197.18,0,0
20413.0,143.575,-5800.46,0,0
21714.625,147.809,-5459.74,0,0
23016.25,128.197,-5161.24,0,0
24317.875,118.828,-4879.63,0,0
25619.5,115.228,-4627.81,0,0
26921.1,109.331,-4401.3,0,0
28222.7,123.397,-4199.92,0,0
29524.4,113.764,-4021.42,0,0
30826,101.011,-3851.75,0,0
32127.6,101.724,-3693.42,0,0
33429.2,91.4304,-3553.17,0,0
34730.9,86.9281,-3416.28,0,0
36032.5,83.4056,-3289.72,0,0
37334.1,81.3726,-3171.86,0,0
38635.7,79.0265,-3061.62,0,0
39937.4,78.6955,-2956.42,0,0
41239,80.6112,-2862.12,0,0
42540.6,80.5061,-2776,0,0
43842.225,75.159,-2692.89,0,0
45143.85,72.6294,-2612.55,0,0
46445.475,71.8671,-2535.7,0,0
47747.1,71.3956,-2466.92,0,0
49048.725,67.6722,-2398,0,0
50350.35,65.9473,-2331.28,0,0
51651.975,65.3213,-2267.15,0,0
52953.6,67.1779,-2204.89,0,0
54255.225,75.1642,-2149.3,0,0
55556.85,73.2585,-2106.28,0,0
56858.475,67.1483,-2052.79,0,0
58160.1,68.2653,-2000.97,0,0
59461.7,72.8631,-1951.15,0,0
60763.3,81.7874,-1913.71,0,0
62065,71.5351,-1880.57,0,0
63366.6,65.5105,-1835.48,0,0
64668.2,66.2,-1792.81,0,0
65969.8,68.2293,-1752.42,0,0
67271.5,72.2098,-1717.36,0,0
68573.1,74.4248,-1689.25,0,0
69874.7,66.9302,-1658.12,0,0
71176.3,65.9495,-1624.1,0,0
72478,60.3773,-1593.14,0,0
73779.6,59.1219,-1557.06,0,0
75081.2,61.2111,-1524.71,0,0
76382.825,63.3121,-1496.41,0,0
77684.45,65.8653,-1469.14,0,0
78986.075,64.0763,-1446.53,0,0
80287.7,61.2742,-1419.6,0,0
81589.325,60.5482,-1393.65,0,0
82890.95,59.3171,-1368.55,0,0
84192.575,58.3499,-1343.65,0,0
85494.2,57.7319,-1319.48,0,0
86795.825,57.1113,-1296.15,0,0
88097.45,55.9259,-1273.95,0,0
89399.075,54.1858,-1250.06,0,0
90700.7,53.9924,-1226.84,0,0
92002.3,54.2876,-1203.79,0,0
93303.9,55.2241,-1183.19,0,0
94605.6,54.1048,-1162.32,0,0
95907.2,54.0037,-1139.8,0,0
97208.8,55.1189,-1118.24,0,0
98510.4,56.7573,-1096.82,0,0
99812.1,59.7421,-1076.27,0,0
101114,64.5524,-1058.5,0,0
102415,63.3098,-1044.74,0,0
103717,60.4899,-1021.64,0,0
105019,64.9803,-998.227,0,0
106320.175,72.1362,-978.328,0,0
107621.8,79.4453,-961.33,0,0
108923.425,88.108,-946.06,0,0
110225.05,95.9183,-934.837,0,0
111526.675,101.282,-925.196,0,0
112828.3,105.034,-916.392,0,0
114129.925,107.041,-908.141,0,0
115431.55,107.435,-899.986,0,0
116733.175,105.63,-891.206,0,0
118034.8,102.162,-879.287,0,0
119336.425,102.81,-863.729,0,0
120638.05,107.966,-858.274,0,0
121939.675,101.154,-850.867,0,0
123241,96.7614,-838.327,0,0
124543,93.4926,-825.38,0,0
125845,91.0492,-812.587,0,0
127146,87.632,-800.185,0,0
128448,83.4993,-787.253,0,0
129749,78.4148,-771.892,0,0
131051,74.7889,-754.176,0,0
132353,73.1111,-735.69,0,0
133654,73.004,-717.147,0,0
134956,74.1083,-698.692,0,0
136258,76.6122,-680.507,0,0
137559,79.5724,-663.705,0,0
138860.775,81.5976,-646.021,0,0
140162.4,85.1311,-627.261,0,0
141464.025,90.1283,-608.495,0,0
142765.65,96.1493,-589.89,0,0
144067.275,103.349,-571.247,0,0
145368.9,111.972,-552.541,0,0
146670.525,122.179,-534.23,0,0
147972.15,133.651,-516.514,0,0
149273.775,147.02,-498.818,0,0
150575.4,163.1,-481.632,0,0
151877.025,182.725,-466.728,0,0
153178.65,205.15,-456.822,0,0
154480,225.523,-453.551,0,0
155782,241.104,-449.964,0,0
157084,254.966,-446.526,0,0
158385,271.703,-440.076,0,0
159687,293.928,-438.729,0,0
160988,310.661,-449.194,0,0
162290,316.016,-454.075,0,0
163592,322.445,-452.505,0,0
164893,334.069,-448.358,0,0
166195,350.738,-444.569,0,0
167497,376.686,-449.21,0,0
168798,398.411,-470.442,0,0
170100,407.864,-500.652,0,0
171401.375,395.821,-534.5,0,0
172703.0,367.643,-552.195,0,0
174004.625,336.176,-550.639,0,0
175306.25,312.308,-534.88,0,0
176607.875,299.338,-511.842,0,0
177909.5,296.072,-489.455,0,0
179211.125,296.85,-469.198,0,0
180512.75,300.835,-450.941,0,0
181814.375,305.308,-433.369,0,0
183116.0,310.005,-414.13,0,0
184417.625,317.94,-391.798,0,0
185719.25,330.71,-367.943,0,0
187021,348.905,-343.569,0,0
188322,373.102,-319.659,0,0
189624,404.328,-297.583,0,0
190926,443.382,-280.385,0,0
192227,488.546,-270.303,0,0
193529,537.238,-269.993,0,0
194831,585.933,-278.803,0,0
196132,634.235,-294.002,0,0
197434,685.063,-317.476,0,0
198735,736.128,-355.282,0,0
200037,778.556,-410.617,0,0
201339,802.369,-476.93,0,0
202640.35,805.563,-541.044,0,0
203941.975,799.767,-596.614,0,0
205243.6,785.775,-647.671,0,0
206545.225,769.433,-692.033,0,0
207846.85,746.526,-743.349,0,0
209148.475,704.445,-782.836,0,0
210450.1,660.841,-803.693,0,0
211751.725,622.057,-811.237,0,0
213053.35,594.132,-810.992,0,0
214354.975,575.525,-808.485,0,0
215656.6,568.445,-814.4,0,0
216958.225,554.031,-830.06,0,0
218259.85,536.442,-842.482,0,0
219561,517.731,-856.475,0,0
220863,493.369,-870.805,0,0
222165,465.293,-880.61,0,0
223466,435.898,-885.348,0,0
224768,407.216,-887.111,0,0
226070,376.449,-885.234,0,0
227371,346.26,-877.572,0,0
228673,318.178,-864.277,0,0
229974,295.85,-846.181,0,0
231276,279.278,-827.269,0,0
232578,267.264,-809.163,0,0
233879,258.875,-792.032,0,0
235180.95,253.234,-776.848,0,0
236482.575,249.079,-764.664,0,0
237784.2,245.286,-752.815,0,0
239085.825,244.024,-743.215,0,0
240387.45,241.953,-736.628,0,0
241689.075,238.419,-731.405,0,0
242990.7,232.951,-726.34,0,0
244292.325,226.353,-720.31,0,0
245593.95,219.46,-712.147,0,0
246895.575,214.368,-702.709,0,0
248197.2,211.776,-694.683,0,0
249498.825,207.422,-687.86,0,0
250800,202.387,-680.773,0,0
252102,195.834,-672.877,0,0
253404,187.897,-661.159,0,0
254705,183.132,-645.158,0,0
256007,181.862,-626.694,0,0
257309,187.448,-607.226,0,0
258610,198.931,-590.487,0,0
259912,215.124,-578.187,0,0
261213,234.225,-571.223,0,0
262515,254.123,-571.336,0,0
263817,274.358,-578.222,0,0
265118,289.63,-594.088,0,0
266420,297.276,-613.643,0,0
267721.55,296.586,-633.694,0,0
269023.175,288.724,-652.669,0,0
270324.8,273.341,-663.506,0,0
271626.425,262.205,-667.248,0,0
272928.05,253.465,-672.752,0,0
274229.675,241.971,-679.725,0,0
275531.3,224.87,-684.644,0,0
276832.925,205.02,-682.206,0,0
278134.55,187.578,-671.243,0,0
279436.175,178.831,-655.011,0,0
280737.8,178.015,-643.677,0,0
282039.425,176.869,-636.755,0,0
283341,175.833,-629.436,0,0
284643,176.21,-624.921,0,0
285944,174.569,-622.419,0,0
287246,169.544,-617.864,0,0
288548,165.852,-607.938,0,0
289849,170.301,-595.716,0,0
291151,181.779,-590.057,0,0
292452,193.711,-593.731,0,0
293754,199.796,-605.468,0,0
295056,196.585,-618.77,0,0
296357,185.851,-627.933,0,0
297659,173.228,-629.912,0,0
298960.525,162.904,-628.112,0,0
300262.15,154.202,-625.121,0,0
301563.775,146.129,-621.194,0,0
302865.4,139.364,-616.044,0,0
304167.025,133.444,-610.449,0,0
305468.65,128.93,-604.223,0,0
306770.275,125.854,-598.083,0,0
308071.9,124.436,-592.975,0,0
309373.525,123.153,-589.927,0,0
310675.15,120.136,-587.668,0,0
311976.775,116.26,-584.157,0,0
313278.4,112.973,-579.82,0,0
314580,110.836,-575.258,0,0
315882,109.168,-571.633,0,0
317183,107.556,-568.72,0,0
318485,105.582,-566.472,0,0
319787,102.83,-564.936,0,0
321088,98.487,-563.517,0,0
322390,92.2258,-560.99,0,0
323691,85.6567,-555.042,0,0
324993,81.7798,-547.489,0,0
326295,79.4825,-540.601,0,0
327596,77.4948,-534.086,0,0
328898,76.2033,-526.945,0,0
330200,76.5546,-519.898,0,0
331501.125,78.2649,-514.487,0,0
332802.75,79.736,-510.886,0,0
334104.375,79.8522,-508.291,0,0
335406.0,78.6358,-505.334,0,0
336707.625,76.5449,-501.129,0,0
338009.25,75.4784,-495.236,0,0
339310.875,75.6816,-489.103,0,0
340612.5,77.5337,-482.93,0,0
341914.125,81.3244,-477.927,0,0
343215.75,85.9796,-475.885,0,0
344517.375,88.8627,-476.26,0,0
345819.0,89.4761,-477.13,0,0
347121,88.3228,-477.409,0,0
348422,86.4759,-476.504,0,0
349724,84.1994,-474.682,0,0
351025,82.1887,-471.855,0,0
352327,80.5388,-468.34,0,0
353629,79.7708,-464.255,0,0
354930,80.4962,-460.771,0,0
356232,80.7368,-458.672,0,0
357534,80.0423,-456.731,0,0
358835,78.6212,-453.921,0,0
360137,77.6011,-449.908,0,0
361438,77.7542,-445.594,0,0
362740.1,78.8588,-441.924,0,0
364041.725,79.9403,-439.148,0,0
365343.35,80.2167,-436.45,0,0
366644.975,80.5683,-432.692,0,0
367946.6,82.2829,-428.448,0,0
369248.225,85.35,-424.678,0,0
370549.85,89.666,-422.304,0,0
371851.475,94.5803,-422.049,0,0
373153.1,98.365,-424.586,0,0
374454.725,99.0792,-428.353,0,0
375756.35,97.1911,-430.509,0,0
377057.975,95.5098,-430.574,0,0
378359.6,94.6229,-430.798,0,0
379661,92.8619,-431.203,0,0
380963,90.9834,-430.622,0,0
382264,89.8125,-429.31,0,0
383566,89.9706,-429.602,0,0
384868,87.6895,-431.655,0,0
386169,82.6955,-432.273,0,0
387471,77.3904,-429.506,0,0
388773,74.1528,-424.723,0,0
390074,73.9474,-420.148,0,0
391376,75.0522,-418.298,0,0
392677,74.0134,-418.899,0,0
393979,70.2106,-418.273,0,0
395280.7,66.1048,-415.361,0,0
396582.325,63.0817,-411.092,0,0
397883.95,61.0896,-406.688,0,0
399185.575,59.5712,-402.066,0,0
400006.6,58.9204,-399.052,0,0