Folder: ML_Dmg_Mehdi_Dataset/Accelerated corrosion test data/2025-10-04_18-00-03 (part 4)

File: sample_8.csv
Frequency (Hz),Impedance (ohms),Phase (Radians),Temperature (C),Humidity (%)
10000.0,311.248,-10940.3,0,0
11301.625,275.758,-9695.48,0,0
12603.25,253.51,-8706.73,0,0
13904.875,225.715,-7907.26,0,0
15206.5,205.477,-7235.63,0,0
16508.125,189.469,-6670.85,0,0
17809.75,175.608,-6186.57,0,0
19111.375,167.261,-5765.29,0,0
20413.0,159.772,-5403.88,0,0
21714.625,150.981,-5083.87,0,0
23016.25,144.28,-4801.89,0,0
24317.875,134.308,-4545.65,0,0
25619.5,127.305,-4313.89,0,0
26921.1,122.068,-4103.96,0,0
28222.7,118.599,-3913.25,0,0
29524.4,116.168,-3740.75,0,0
30826,114.168,-3583.88,0,0
32127.6,111.874,-3438.45,0,0
33429.2,113.025,-3303.58,0,0
34730.9,111.415,-3185.68,0,0
36032.5,106.586,-3076,0,0
37334.1,99.3729,-2970.29,0,0
38635.7,92.4842,-2869.57,0,0
39937.4,86.8744,-2773.62,0,0
41239,84.5908,-2682.76,0,0
42540.6,82.0902,-2598.21,0,0
43842.225,81.6488,-2520.03,0,0
45143.85,78.2531,-2446.1,0,0
46445.475,75.7881,-2375.23,0,0
47747.1,74.5204,-2308.08,0,0
49048.725,72.5262,-2245.55,0,0
50350.35,70.6414,-2184.69,0,0
51651.975,69.6973,-2126.63,0,0
52953.6,69.4242,-2072.49,0,0
54255.225,68.0185,-2022.59,0,0
55556.85,65.0675,-1973.21,0,0
56858.475,62.9225,-1924.15,0,0
58160.1,62.0621,-1877.51,0,0
59461.7,61.9783,-1833.99,0,0
60763.3,60.3601,-1791.16,0,0
62065,60.3235,-1750.33,0,0
63366.6,60.8022,-1710.63,0,0
64668.2,62.312,-1674.59,0,0
65969.8,61.1694,-1640.46,0,0
67271.5,59.1605,-1605.87,0,0
68573.1,58.0866,-1571.83,0,0
69874.7,57.9803,-1538.67,0,0
71176.3,58.345,-1507.4,0,0
72478,58.6588,-1477.81,0,0
73779.6,57.4991,-1448.75,0,0
75081.2,57.1702,-1420.17,0,0
76382.825,57.2549,-1392.27,0,0
77684.45,57.0811,-1365.62,0,0
78986.075,56.562,-1339.33,0,0
80287.7,56.7448,-1313.19,0,0
81589.325,57.1514,-1287.76,0,0
82890.95,58.6871,-1262.95,0,0
84192.575,60.5578,-1239.56,0,0
85494.2,61.3757,-1218.55,0,0
86795.825,61.275,-1195.54,0,0
88097.45,62.9409,-1173.11,0,0
89399.075,64.9525,-1151.55,0,0
90700.7,68.09,-1130.46,0,0
92002.3,73.0206,-1111.99,0,0
93303.9,74.7955,-1097.49,0,0
94605.6,74.6096,-1079.54,0,0
95907.2,76.1217,-1061.9,0,0
97208.8,77.8527,-1044.87,0,0
98510.4,80.294,-1029.77,0,0
99812.1,80.3047,-1015.64,0,0
101114,80.8925,-1001.24,0,0
102415,79.9451,-986.881,0,0
103717,78.8453,-971.084,0,0
105019,78.7806,-955.863,0,0
106320.175,79.4728,-939.859,0,0
107621.8,80.9914,-926.054,0,0
108923.425,80.8021,-911.994,0,0
110225.05,81.7577,-898.159,0,0
111526.675,81.7481,-885.266,0,0
112828.3,81.7797,-871.978,0,0
114129.925,81.5476,-859.025,0,0
115431.55,81.1957,-845.674,0,0
116733.175,80.5473,-832.515,0,0
118034.8,80.2658,-818.5,0,0
119336.425,80.8728,-805.374,0,0
120638.05,80.3687,-792.186,0,0
121939.675,80.3787,-778.55,0,0
123241,80.7953,-765.418,0,0
124543,80.8849,-751.349,0,0
125845,82.439,-737.615,0,0
127146,83.7896,-724.955,0,0
128448,84.689,-712.499,0,0
129749,84.9105,-699.87,0,0
131051,86.1591,-685.767,0,0
132353,87.1532,-673.559,0,0
133654,88.3881,-659.484,0,0
134956,89.9125,-645.719,0,0
136258,93.5581,-632.418,0,0
137559,94.7269,-621.923,0,0
138860.775,93.6522,-607.698,0,0
140162.4,95.0986,-592.285,0,0
141464.025,96.747,-576.408,0,0
142765.65,99.5141,-559.559,0,0
144067.275,103.772,-541.947,0,0
145368.9,110.012,-522.648,0,0
146670.525,120.443,-505.651,0,0
147972.15,130.637,-491.683,0,0
149273.775,138.84,-473.994,0,0
150575.4,154.706,-455.197,0,0
151877.025,179.395,-444.614,0,0
153178.65,194.302,-446.936,0,0
154480,202.039,-443.748,0,0
155782,213.641,-436.397,0,0
157084,222.674,-442.375,0,0
158385,220.195,-430.394,0,0
159687,234.519,-419.511,0,0
160988,238.954,-419.333,0,0
162290,247.403,-405.009,0,0
163592,265.547,-400.482,0,0
164893,275.681,-405.34,0,0
166195,279.02,-412.423,0,0
167497,269.187,-410.924,0,0
168798,261.283,-397.317,0,0
170100,261.124,-377.103,0,0
171401.375,265.049,-355.354,0,0
172703.0,277.13,-330.247,0,0
174004.625,295.978,-310.433,0,0
175306.25,315.948,-295.76,0,0
176607.875,333.58,-278.183,0,0
177909.5,359.514,-260.68,0,0
179211.125,391.914,-245.035,0,0
180512.75,428.177,-240.143,0,0
181814.375,459.486,-239.989,0,0
183116.0,492.005,-241.237,0,0
184417.625,518.27,-245.871,0,0
185719.25,548.491,-243.34,0,0
187021,591.043,-243.483,0,0
188322,635.206,-254.02,0,0
189624,681.021,-279.738,0,0
190926,712.743,-304.237,0,0
192227,757.763,-326.295,0,0
193529,802.302,-357.919,0,0
194831,865.931,-414.392,0,0
196132,903.142,-502.171,0,0
197434,910.053,-607.971,0,0
198735,876.777,-705.003,0,0
200037,821.279,-780.411,0,0
201339,747.26,-828.607,0,0
202640.35,679.243,-852.995,0,0
203941.975,611.809,-854.386,0,0
205243.6,561.57,-840.824,0,0
206545.225,522.825,-821.972,0,0
207846.85,501.404,-796.185,0,0
209148.475,490.837,-780.101,0,0
210450.1,486.52,-765.646,0,0
211751.725,487.988,-761.169,0,0
213053.35,489.135,-764.49,0,0
214354.975,483.648,-774.479,0,0
215656.6,470.309,-782.476,0,0
216958.225,454.318,-782.751,0,0
218259.85,447.517,-777.055,0,0
219561,447.168,-778.802,0,0
220863,444.876,-786.317,0,0
222165,440.539,-797.427,0,0
223466,429.431,-812.673,0,0
224768,415.115,-823.383,0,0
226070,397.674,-837.069,0,0
227371,372.8,-845.797,0,0
228673,346.378,-846.327,0,0
229974,326.938,-843.674,0,0
231276,303.737,-843.771,0,0
232578,279.781,-836.774,0,0
233879,257.954,-825.838,0,0
235180.95,238.771,-811.54,0,0
236482.575,224.782,-794.704,0,0
237784.2,216.019,-778.765,0,0
239085.825,209.937,-764.793,0,0
240387.45,207.388,-755.541,0,0
241689.075,200.067,-749.898,0,0
242990.7,189.233,-741.711,0,0
244292.325,179.337,-729.207,0,0
245593.95,172.798,-715.06,0,0
246895.575,169.683,-700.433,0,0
248197.2,168.338,-689.97,0,0
249498.825,164.632,-678.295,0,0
250800,163.93,-664.243,0,0
252102,167.045,-650.781,0,0
253404,174.324,-641.711,0,0
254705,177.922,-637.511,0,0
256007,179.477,-631.288,0,0
257309,182.72,-624.357,0,0
258610,187.83,-617.754,0,0
259912,194.774,-614.174,0,0
261213,200.101,-613.168,0,0
262515,204.826,-613.136,0,0
263817,207.536,-613.601,0,0
265118,209.327,-612.781,0,0
266420,214.307,-609.347,0,0
267721.55,225.054,-608.944,0,0
269023.175,237.994,-616.967,0,0
270324.8,245.673,-633.857,0,0
271626.425,245.027,-655.2,0,0
272928.05,233.415,-676.177,0,0
274229.675,212.352,-690.322,0,0
275531.3,188.244,-693.871,0,0
276832.925,167.957,-688.642,0,0
278134.55,152.331,-680.457,0,0
279436.175,140.16,-670.386,0,0
280737.8,132.01,-658.659,0,0
282039.425,128.408,-648.493,0,0
283341,126.39,-641.213,0,0
284643,123.778,-634.943,0,0
285944,122.804,-628.244,0,0
287246,125.806,-624.779,0,0
288548,125.282,-628.675,0,0
289849,117.79,-630.927,0,0
291151,108.97,-628.708,0,0
292452,101.128,-625.39,0,0
293754,92.8761,-619.957,0,0
295056,86.073,-613.007,0,0
296357,80.4707,-605.4,0,0
297659,76.2864,-597.445,0,0
298960.525,73.0788,-589.548,0,0
300262.15,70.8375,-581.646,0,0
301563.775,69.7507,-573.778,0,0
302865.4,70.1403,-566.825,0,0
304167.025,70.8147,-561.311,0,0
305468.65,71.4289,-556.403,0,0
306770.275,72.4681,-552.387,0,0
308071.9,73.0044,-549.431,0,0
309373.525,73.0283,-547.442,0,0
310675.15,71.4409,-545.343,0,0
311976.775,69.7856,-542.572,0,0
313278.4,67.9882,-539.828,0,0
314580,65.6112,-536.818,0,0
315882,63.2544,-532.822,0,0
317183,61.6438,-528.476,0,0
318485,60.8809,-524.289,0,0
319787,60.4152,-520.657,0,0
321088,60.0311,-517.822,0,0
322390,58.9076,-515.473,0,0
323691,57.3962,-512.916,0,0
324993,55.2717,-510.286,0,0
326295,52.89,-507.029,0,0
327596,50.7734,-503.269,0,0
328898,48.9882,-499.266,0,0
330200,47.4623,-495.152,0,0
331501.125,46.0716,-490.895,0,0
332802.75,45.0305,-486.54,0,0
334104.375,44.2751,-482.158,0,0
335406.0,44.0546,-477.935,0,0
336707.625,44.1175,-474.246,0,0
338009.25,44.0381,-470.902,0,0
339310.875,43.879,-467.884,0,0
340612.5,43.2702,-464.9,0,0
341914.125,42.4235,-461.754,0,0
343215.75,41.6319,-458.295,0,0
344517.375,41.0189,-454.576,0,0
345819.0,40.6884,-450.898,0,0
347121,40.4735,-447.203,0,0
348422,40.5552,-443.532,0,0
349724,40.8331,-440.078,0,0
351025,41.2472,-436.738,0,0
352327,41.7235,-433.765,0,0
353629,42.113,-430.869,0,0
354930,42.5185,-428.098,0,0
356232,42.9416,-425.61,0,0
357534,42.9892,-423.288,0,0
358835,42.8315,-420.823,0,0
360137,42.6494,-418.099,0,0
361438,42.5445,-415.165,0,0
362740.1,42.6246,-412.171,0,0
364041.725,42.8858,-409.172,0,0
365343.35,43.4578,-406.16,0,0
366644.975,44.2999,-403.516,0,0
367946.6,44.8915,-401.134,0,0
369248.225,45.4497,-398.538,0,0
370549.85,46.5794,-395.866,0,0
371851.475,47.9198,-394.142,0,0
373153.1,48.7783,-392.824,0,0
374454.725,49.043,-391.557,0,0
375756.35,49.0516,-389.947,0,0
377057.975,49.3551,-388.224,0,0
378359.6,49.5648,-386.951,0,0
379661,49.0924,-385.441,0,0
380963,49.3267,-383.159,0,0
382264,50.0342,-382.447,0,0
383566,48.9742,-381.922,0,0
384868,47.4338,-380.384,0,0
386169,45.999,-377.945,0,0
387471,45.036,-375.106,0,0
388773,44.5834,-372.098,0,0
390074,44.5984,-369.222,0,0
391376,44.6726,-366.708,0,0
392677,44.5979,-364.257,0,0
393979,44.5678,-361.641,0,0
395280.7,44.6892,-359.032,0,0
396582.325,45.002,-356.417,0,0
397883.95,45.3922,-354.031,0,0
399185.575,45.6334,-351.808,0,0
400006.6,45.6462,-350.352,0,0