Folder: ML_Dmg_Mehdi_Dataset/Accelerated corrosion test data/2025-10-05_06-00-04

Note: README.md
# ML_Dmg_Mehdi_Dataset

File: sample_1.csv
Frequency (Hz),Impedance (ohms),Phase (Radians),Temperature (C),Humidity (%)
10000.0,237.282,-12245.5,0,0
11301.625,211.281,-10845.9,0,0
12603.25,192.283,-9742.3,0,0
13904.875,179.227,-8815.27,0,0
15206.5,180.395,-8082.45,0,0
16508.125,153.793,-7452.88,0,0
17809.75,145.962,-6917.39,0,0
19111.375,134.708,-6445.36,0,0
20413.0,153.368,-6001.85,0,0
21714.625,138.182,-5687.8,0,0
23016.25,121.59,-5378.47,0,0
24317.875,112.123,-5086.03,0,0
25619.5,104.055,-4820.61,0,0
26921.1,112.655,-4571.7,0,0
28222.7,109.732,-4366.64,0,0
29524.4,106.634,-4199.85,0,0
30826,100.222,-4012.73,0,0
32127.6,97.456,-3853.05,0,0
33429.2,88.6742,-3709.26,0,0
34730.9,81.3965,-3567.01,0,0
36032.5,77.4075,-3435.43,0,0
37334.1,74.6336,-3312.89,0,0
38635.7,72.47,-3198.65,0,0
39937.4,70.6133,-3091.65,0,0
41239,71.8376,-2992.23,0,0
42540.6,70.297,-2900.11,0,0
43842.225,67.2939,-2812.71,0,0
45143.85,68.3931,-2730.93,0,0
46445.475,65.3704,-2654.77,0,0
47747.1,63.7209,-2580.43,0,0
49048.725,61.1079,-2510.12,0,0
50350.35,59.515,-2443.31,0,0
51651.975,58.4734,-2379.3,0,0
52953.6,57.4277,-2318.23,0,0
54255.225,56.6331,-2261.06,0,0
55556.85,55.697,-2205.52,0,0
56858.475,54.6939,-2152.37,0,0
58160.1,54.422,-2101.6,0,0
59461.7,54.2126,-2053.44,0,0
60763.3,54.3087,-2007.23,0,0
62065,53.0691,-1963.28,0,0
63366.6,52.2322,-1919.5,0,0
64668.2,52.9024,-1877.43,0,0
65969.8,55.0806,-1839.29,0,0
67271.5,53.4435,-1802.79,0,0
68573.1,53.1581,-1767.11,0,0
69874.7,52.0856,-1733.04,0,0
71176.3,50.3483,-1698.23,0,0
72478,48.4564,-1664.46,0,0
73779.6,48.0756,-1630.96,0,0
75081.2,48.3927,-1598.68,0,0
76382.825,49.1766,-1567.42,0,0
77684.45,50.0759,-1538.06,0,0
78986.075,51.8691,-1510.23,0,0
80287.7,51.07,-1483.8,0,0
81589.325,50.7698,-1455.75,0,0
82890.95,51.1497,-1428.92,0,0
84192.575,52.7262,-1402.51,0,0
85494.2,55.0208,-1378.01,0,0
86795.825,55.9884,-1354.53,0,0
88097.45,56.4312,-1331.39,0,0
89399.075,57.6454,-1306.77,0,0
90700.7,61.5186,-1283.26,0,0
92002.3,67.9679,-1261.92,0,0
93303.9,75.0624,-1244.93,0,0
94605.6,73.7956,-1237.75,0,0
95907.2,67.4801,-1219.29,0,0
97208.8,64.8357,-1198.8,0,0
98510.4,64.3921,-1178.45,0,0
99812.1,63.2837,-1158,0,0
101114,63.7458,-1138.27,0,0
102415,63.1889,-1116.58,0,0
103717,67.9771,-1095.31,0,0
105019,74.7281,-1077.3,0,0
106320.175,81.2324,-1061.3,0,0
107621.8,87.8971,-1048.65,0,0
108923.425,92.6146,-1037.65,0,0
110225.05,94.1204,-1029.2,0,0
111526.675,94.7699,-1016.79,0,0
112828.3,97.0239,-1007.3,0,0
114129.925,96.4372,-999.761,0,0
115431.55,92.3786,-990.353,0,0
116733.175,87.1375,-978.058,0,0
118034.8,83.1986,-963.268,0,0
119336.425,81.6412,-947.607,0,0
120638.05,82.1928,-933.584,0,0
121939.675,81.0444,-920.914,0,0
123241,79.3478,-906.549,0,0
124543,79.0243,-891.376,0,0
125845,79.6641,-876.545,0,0
127146,80.9192,-862.234,0,0
128448,82.7205,-847.214,0,0
129749,85.6335,-832.671,0,0
131051,90.8793,-819.565,0,0
132353,95.0986,-808.925,0,0
133654,98.3999,-798.578,0,0
134956,100.72,-788.314,0,0
136258,104.062,-777.195,0,0
137559,108.77,-767.448,0,0
138860.775,111.185,-761.909,0,0
140162.4,110.676,-753.67,0,0
141464.025,110.279,-743.289,0,0
142765.65,111.114,-732.122,0,0
144067.275,112.254,-721.253,0,0
145368.9,114.378,-709.907,0,0
146670.525,117.384,-698.913,0,0
147972.15,120.255,-689.49,0,0
149273.775,122.282,-680.453,0,0
150575.4,123.623,-671.554,0,0
151877.025,122.358,-660.21,0,0
153178.65,122.604,-645.343,0,0
154480,126.04,-629.175,0,0
155782,133.45,-612.094,0,0
157084,145.41,-597.045,0,0
158385,157.709,-587.672,0,0
159687,168.327,-576.719,0,0
160988,185.651,-566.464,0,0
162290,202.665,-565.314,0,0
163592,216.691,-565.644,0,0
164893,228.955,-567.778,0,0
166195,243.208,-575.133,0,0
167497,248.556,-588.01,0,0
168798,246.252,-598.626,0,0
170100,238.68,-604.169,0,0
171401.375,231.655,-603.257,0,0
172703.0,225.334,-600.681,0,0
174004.625,221.365,-593.961,0,0
175306.25,221.722,-587.908,0,0
176607.875,221.188,-586.365,0,0
177909.5,218.416,-583.474,0,0
179211.125,215.169,-580.323,0,0
180512.75,209.476,-577.892,0,0
181814.375,201.308,-569.682,0,0
183116.0,194.025,-559.876,0,0
184417.625,188.692,-544.598,0,0
185719.25,187.806,-528.647,0,0
187021,189.263,-514.024,0,0
188322,191.202,-499.425,0,0
189624,194.345,-483.104,0,0
190926,200.274,-467.168,0,0
192227,207.081,-451.257,0,0
193529,215.105,-435.412,0,0
194831,225.134,-418.481,0,0
196132,237.755,-400.842,0,0
197434,254.177,-382.548,0,0
198735,274.259,-367.375,0,0
200037,294.457,-352.32,0,0
201339,320.319,-334.228,0,0
202640.35,356.222,-320.176,0,0
203941.975,398.729,-313.314,0,0
205243.6,450.76,-319.989,0,0
206545.225,495.443,-347.864,0,0
207846.85,525.479,-386.393,0,0
209148.475,540.858,-426.722,0,0
210450.1,538.752,-461.434,0,0
211751.725,530.551,-481.355,0,0
213053.35,530.264,-486.703,0,0
214354.975,539.529,-496.982,0,0
215656.6,550.442,-511.216,0,0
216958.225,557.085,-524.678,0,0
218259.85,572.714,-538.466,0,0
219561,587.663,-557.296,0,0
220863,606.088,-582.01,0,0
222165,623.236,-620.08,0,0
223466,629.062,-665.99,0,0
224768,622.817,-715.286,0,0
226070,604.617,-764.843,0,0
227371,572.308,-809.283,0,0
228673,527.43,-842.167,0,0
229974,481.062,-858.935,0,0
231276,436.987,-863.728,0,0
232578,401.253,-859.483,0,0
233879,371.996,-855.003,0,0
235180.95,346.197,-848.989,0,0
236482.575,322.582,-843.092,0,0
237784.2,301.25,-836.413,0,0
239085.825,279.57,-829.922,0,0
240387.45,257.781,-819.249,0,0
241689.075,240.582,-806.766,0,0
242990.7,225.771,-794.383,0,0
244292.325,213.489,-782.643,0,0
245593.95,201.441,-771.682,0,0
246895.575,189.735,-760.082,0,0
248197.2,179.693,-747.453,0,0
249498.825,171.233,-734.949,0,0
250800,164.102,-722.86,0,0
252102,157.531,-710.847,0,0
253404,151.825,-698.459,0,0
254705,147.421,-685.335,0,0
256007,145.176,-672.771,0,0
257309,143.66,-660.928,0,0
258610,143.544,-648.842,0,0
259912,145.802,-637.594,0,0
261213,149.475,-628.111,0,0
262515,154.043,-620.695,0,0
263817,159.395,-614.559,0,0
265118,166.051,-611.272,0,0
266420,172.378,-612.438,0,0
267721.55,175.112,-618.19,0,0
269023.175,170.342,-624.918,0,0
270324.8,160.002,-626.111,0,0
271626.425,150.491,-620.967,0,0
272928.05,144.387,-612.649,0,0
274229.675,141.683,-604.011,0,0
275531.3,141.004,-596.385,0,0
276832.925,141.617,-589.374,0,0
278134.55,143.896,-584.201,0,0
279436.175,146.265,-581.289,0,0
280737.8,146.877,-580.374,0,0
282039.425,145.558,-579.312,0,0
283341,143.145,-577.686,0,0
284643,140.282,-574.806,0,0
285944,136.846,-571.413,0,0
287246,132.72,-566.512,0,0
288548,130.148,-558.097,0,0
289849,132.67,-549.86,0,0
291151,136.219,-546.645,0,0
292452,136.439,-544.704,0,0
293754,134.739,-540.509,0,0
295056,134.824,-533.86,0,0
296357,137.752,-526.961,0,0
297659,142.551,-522.271,0,0
298960.525,147.624,-518.848,0,0
300262.15,153.014,-517.084,0,0
301563.775,158.217,-515.693,0,0
302865.4,165.04,-516.178,0,0
304167.025,170.636,-519.447,0,0
305468.65,174.111,-523.952,0,0
306770.275,177.372,-528.682,0,0
308071.9,179.09,-535.419,0,0
309373.525,178.056,-542.487,0,0
310675.15,175.574,-548.938,0,0
311976.775,171.178,-555.63,0,0
313278.4,164.307,-560.522,0,0
314580,157.135,-563.321,0,0
315882,150.168,-565.163,0,0
317183,142.064,-566.31,0,0
318485,133.818,-565.5,0,0
319787,126.198,-563.409,0,0
321088,118.767,-560.022,0,0
322390,112.294,-555.488,0,0
323691,107.147,-549.851,0,0
324993,103.864,-543.928,0,0
326295,102.057,-538.979,0,0
327596,100.915,-535.105,0,0
328898,99.8481,-532.295,0,0
330200,98.3284,-530.295,0,0
331501.125,96.1741,-528.714,0,0
332802.75,93.2693,-527.25,0,0
334104.375,89.6329,-525.318,0,0
335406.0,85.7648,-522.661,0,0
336707.625,82.0332,-519.436,0,0
338009.25,78.5793,-515.67,0,0
339310.875,75.3983,-511.692,0,0
340612.5,72.5508,-507.312,0,0
341914.125,70.3663,-502.994,0,0
343215.75,68.3875,-498.958,0,0
344517.375,66.223,-495.019,0,0
345819.0,64.072,-490.756,0,0
347121,62.2586,-486.145,0,0
348422,60.7783,-481.503,0,0
349724,59.6794,-476.776,0,0
351025,59.0613,-472.245,0,0
352327,58.6375,-468.048,0,0
353629,58.0607,-464.035,0,0
354930,57.5771,-459.846,0,0
356232,57.4444,-455.598,0,0
357534,57.6552,-451.707,0,0
358835,57.7634,-448.004,0,0
360137,57.8918,-444.311,0,0
361438,58.2381,-440.725,0,0
362740.1,58.4833,-437.389,0,0
364041.725,58.7416,-433.917,0,0
365343.35,59.0239,-430.475,0,0
366644.975,59.3775,-426.879,0,0
367946.6,59.6559,-423.111,0,0
369248.225,60.4168,-418.584,0,0
370549.85,62.5318,-414.029,0,0
371851.475,65.6234,-410.41,0,0
373153.1,69.0399,-407.972,0,0
374454.725,72.3033,-406.661,0,0
375756.35,74.8985,-406.168,0,0
377057.975,76.8145,-405.688,0,0
378359.6,78.7129,-405.417,0,0
379661,80.2459,-405.467,0,0
380963,81.8482,-405.549,0,0
382264,83.4789,-406.835,0,0
383566,83.6318,-409.141,0,0
384868,82.0361,-411.091,0,0
386169,79.5915,-411.894,0,0
387471,76.5793,-411.869,0,0
388773,73.7061,-410.377,0,0
390074,71.8188,-408.299,0,0
391376,70.5759,-406.583,0,0
392677,69.0102,-405.397,0,0
393979,66.7134,-403.999,0,0
395280.7,64.1277,-401.676,0,0
396582.325,61.9387,-398.642,0,0
397883.95,60.327,-395.25,0,0
399185.575,59.1042,-391.718,0,0
400006.6,58.5776,-389.4,0,0

File: sample_2.csv
Frequency (Hz),Impedance (ohms),Phase (Radians),Temperature (C),Humidity (%)
10000.0,226.088,-11393.7,0,0
11301.625,200.806,-10090.8,0,0
12603.25,181.012,-9059.04,0,0
13904.875,183.178,-8212.65,0,0
15206.5,165.406,-7523.56,0,0
16508.125,141.643,-6934.9,0,0
17809.75,131.234,-6428.67,0,0
19111.375,127.731,-5990.55,0,0
20413.0,116.882,-5608.55,0,0
21714.625,127.269,-5278.84,0,0
23016.25,111.276,-4985.66,0,0
24317.875,101.69,-4720.82,0,0
25619.5,96.4508,-4477.96,0,0
26921.1,93.9507,-4259.84,0,0
28222.7,89.5486,-4061.06,0,0
29524.4,92.0919,-3877.55,0,0
30826,87.2787,-3724.67,0,0
32127.6,81.2892,-3571.28,0,0
33429.2,79.4158,-3433.08,0,0
34730.9,75.1425,-3302.58,0,0
36032.5,72.5783,-3181.61,0,0
37334.1,70.42,-3068.86,0,0
38635.7,68.2106,-2964.11,0,0
39937.4,66.1867,-2865.37,0,0
41239,65.0774,-2772.8,0,0
42540.6,63.9985,-2686.62,0,0
43842.225,62.3079,-2604.77,0,0
45143.85,61.2017,-2527.48,0,0
46445.475,60.8022,-2455.27,0,0
47747.1,60.2343,-2386.22,0,0
49048.725,59.9738,-2322.16,0,0
50350.35,57.4919,-2260.48,0,0
51651.975,56.2479,-2201.47,0,0
52953.6,54.7785,-2144.44,0,0
54255.225,53.8887,-2090.01,0,0
55556.85,53.6809,-2038.18,0,0
56858.475,53.4219,-1988.34,0,0
58160.1,53.809,-1941.31,0,0
59461.7,54.1842,-1895.66,0,0
60763.3,55.8619,-1853.39,0,0
62065,58.5961,-1814.79,0,0
63366.6,55.6492,-1778.46,0,0
64668.2,52.5231,-1740.16,0,0
65969.8,50.4254,-1701.5,0,0
67271.5,50.9689,-1664.01,0,0
68573.1,53.3031,-1630.41,0,0
69874.7,55.412,-1599.64,0,0
71176.3,52.1978,-1571.86,0,0
72478,47.545,-1541.46,0,0
73779.6,44.928,-1508.89,0,0
75081.2,44.9337,-1476.65,0,0
76382.825,46.6566,-1446.38,0,0
77684.45,49.3526,-1418.28,0,0
78986.075,52.6829,-1393.89,0,0
80287.7,51.6735,-1372.64,0,0
81589.325,48.9101,-1347.64,0,0
82890.95,47.7145,-1322.15,0,0
84192.575,48.5177,-1297.32,0,0
85494.2,49.2416,-1273.91,0,0
86795.825,49.9733,-1252.04,0,0
88097.45,50.6795,-1230.84,0,0
89399.075,50.7444,-1209.43,0,0
90700.7,51.2396,-1189.21,0,0
92002.3,52.6269,-1167.98,0,0
93303.9,55.487,-1149.34,0,0
94605.6,54.7631,-1133.08,0,0
95907.2,54.1158,-1113.63,0,0
97208.8,57.1146,-1096.59,0,0
98510.4,57.3515,-1082.77,0,0
99812.1,53.1531,-1068.65,0,0
101114,50.1502,-1050.14,0,0
102415,46.9579,-1030.22,0,0
103717,45.9394,-1009.71,0,0
105019,49.3386,-989.261,0,0
106320.175,54.1536,-972.405,0,0
107621.8,57.4547,-960.288,0,0
108923.425,56.1822,-948.551,0,0
110225.05,52.8894,-933.319,0,0
111526.675,51.781,-915.757,0,0
112828.3,52.0186,-898.541,0,0
114129.925,53.5669,-881.358,0,0
115431.55,56.1837,-865.084,0,0
116733.175,59.3902,-849.539,0,0
118034.8,63.3002,-835.512,0,0
119336.425,67.1458,-823.035,0,0
120638.05,69.7969,-812.795,0,0
121939.675,69.2477,-801.769,0,0
123241,68.6823,-788.989,0,0
124543,68.3886,-775.853,0,0
125845,68.0979,-761.447,0,0
127146,69.1304,-746.306,0,0
128448,71.8567,-731.529,0,0
129749,74.9337,-718.198,0,0
131051,77.7245,-705.676,0,0
132353,79.4836,-693.648,0,0
133654,80.565,-680.534,0,0
134956,81.8726,-666.588,0,0
136258,83.8426,-652.19,0,0
137559,86.6393,-637.218,0,0
138860.775,89.2737,-622.638,0,0
140162.4,91.9943,-606.421,0,0
141464.025,97.0431,-587.836,0,0
142765.65,105.814,-569.832,0,0
144067.275,116.132,-554.529,0,0
145368.9,126.682,-539.247,0,0
146670.525,138.646,-524.49,0,0
147972.15,153.725,-509.035,0,0
149273.775,173.856,-494.629,0,0
150575.4,201.355,-489.368,0,0
151877.025,225.615,-497.758,0,0
153178.65,237.206,-513.442,0,0
154480,237.73,-524.46,0,0
155782,234.625,-529.452,0,0
157084,230.844,-530.465,0,0
158385,226.867,-526.874,0,0
159687,224.048,-521.398,0,0
160988,225.372,-513.898,0,0
162290,232.94,-509.463,0,0
163592,231.174,-517.727,0,0
164893,217.381,-517.332,0,0
166195,202.263,-505.494,0,0
167497,194.136,-485.858,0,0
168798,190.218,-463.859,0,0
170100,191.988,-442.48,0,0
171401.375,195.352,-420.108,0,0
172703.0,203.375,-396.032,0,0
174004.625,215.402,-372.302,0,0
175306.25,233.595,-348.389,0,0
176607.875,256.801,-329.946,0,0
177909.5,285.42,-317.864,0,0
179211.125,305.983,-317.429,0,0
180512.75,317.28,-317.526,0,0
181814.375,321.261,-303.195,0,0
183116.0,335.995,-280.166,0,0
184417.625,360.952,-256.157,0,0
185719.25,396.654,-235.962,0,0
187021,436.34,-226.95,0,0
188322,478.051,-219.687,0,0
189624,517.922,-217.95,0,0
190926,561.437,-214.586,0,0
192227,620.28,-214.705,0,0
193529,689.558,-233.769,0,0
194831,751.46,-277.217,0,0
196132,804.276,-334.539,0,0
197434,844.284,-398.979,0,0
198735,872.062,-473.558,0,0
200037,879.905,-555.241,0,0
201339,875.369,-638.205,0,0
202640.35,844.182,-719.724,0,0
203941.975,791.889,-778.394,0,0
205243.6,743.435,-818.971,0,0
206545.225,687.517,-850.463,0,0
207846.85,637.998,-863.908,0,0
209148.475,599.029,-871.675,0,0
210450.1,560.284,-885.503,0,0
211751.725,513.636,-889.679,0,0
213053.35,473.513,-880.729,0,0
214354.975,440.606,-866.839,0,0
215656.6,415.865,-852.551,0,0
216958.225,395.383,-836.956,0,0
218259.85,380.599,-821.412,0,0
219561,370.344,-807.724,0,0
220863,362.764,-797.184,0,0
222165,357.403,-786.376,0,0
223466,356.452,-780.062,0,0
224768,354.044,-778.345,0,0
226070,349.865,-777.234,0,0
227371,347.865,-777.217,0,0
228673,346.043,-781.743,0,0
229974,339.522,-791.252,0,0
231276,326.668,-799.642,0,0
232578,310.518,-804.387,0,0
233879,293.361,-805.767,0,0
235180.95,276.887,-804.981,0,0
236482.575,259.574,-802.456,0,0
237784.2,242.303,-797.443,0,0
239085.825,226.418,-789.236,0,0
240387.45,212.707,-779.699,0,0
241689.075,201.175,-769.442,0,0
242990.7,191.972,-759.445,0,0
244292.325,184.181,-751.276,0,0
245593.95,175.763,-744.572,0,0
246895.575,164.715,-739.172,0,0
248197.2,150.931,-729.198,0,0
249498.825,139.161,-715.847,0,0
250800,129.874,-700.096,0,0
252102,124.017,-683.368,0,0
253404,121.128,-666.878,0,0
254705,120.113,-651.481,0,0
256007,120.876,-635.869,0,0
257309,124.846,-621.379,0,0
258610,130.452,-609.159,0,0
259912,137.004,-598.328,0,0
261213,145.492,-589.652,0,0
262515,154.543,-584.376,0,0
263817,162.903,-581.214,0,0
265118,170.375,-581.538,0,0
266420,174.048,-582.949,0,0
267721.55,177.003,-583.207,0,0
269023.175,177.888,-584.423,0,0
270324.8,176.853,-582.216,0,0
271626.425,179.025,-576.925,0,0
272928.05,184.981,-572.996,0,0
274229.675,195.332,-570.891,0,0
275531.3,208.596,-577.491,0,0
276832.925,215.791,-593.965,0,0
278134.55,210.975,-611.115,0,0
279436.175,200.223,-622.421,0,0
280737.8,188.071,-628.891,0,0
282039.425,175.019,-632.923,0,0
283341,159.561,-632.908,0,0
284643,147.653,-627.36,0,0
285944,135.782,-623.41,0,0
287246,122.055,-613.565,0,0
288548,113.332,-596.605,0,0
289849,114.86,-577.006,0,0
291151,126.877,-564.177,0,0
292452,141.044,-563.036,0,0
293754,147.726,-571.225,0,0
295056,144.876,-575.35,0,0
296357,148.619,-576.016,0,0
297659,147.845,-586.891,0,0
298960.525,138.333,-592.523,0,0
300262.15,129.094,-593.538,0,0
301563.775,120.514,-590.981,0,0
302865.4,115.918,-587.206,0,0
304167.025,112.18,-587.143,0,0
305468.65,104.912,-587.68,0,0
306770.275,95.7212,-585.081,0,0
308071.9,87.9115,-579.721,0,0
309373.525,81.6751,-573.841,0,0
310675.15,76.2703,-567.55,0,0
311976.775,71.7321,-560.786,0,0
313278.4,68.4556,-554.126,0,0
314580,65.6337,-547.874,0,0
315882,62.974,-541.639,0,0
317183,60.8841,-535.214,0,0
318485,59.6474,-529.029,0,0
319787,58.7632,-523.382,0,0
321088,57.7125,-517.99,0,0
322390,56.7883,-512.538,0,0
323691,55.9009,-506.769,0,0
324993,55.7605,-500.164,0,0
326295,57.8193,-493.777,0,0
327596,61.0276,-489.782,0,0
328898,63.1441,-487.367,0,0
330200,64.8158,-485.581,0,0
331501.125,65.7123,-484.771,0,0
332802.75,65.1285,-484.505,0,0
334104.375,62.8465,-483.204,0,0
335406.0,60.4606,-480.603,0,0
336707.625,58.3831,-477.324,0,0
338009.25,56.6853,-473.554,0,0
339310.875,55.3115,-469.508,0,0
340612.5,54.4959,-465.202,0,0
341914.125,53.9548,-460.982,0,0
343215.75,53.7026,-456.613,0,0
344517.375,53.9703,-452.249,0,0
345819.0,54.7123,-447.982,0,0
347121,55.8632,-444.134,0,0
348422,57.2436,-440.658,0,0
349724,58.9203,-437.459,0,0
351025,60.6887,-434.981,0,0
352327,62.086,-432.993,0,0
353629,63.1896,-430.865,0,0
354930,64.4424,-428.799,0,0
356232,65.7702,-426.982,0,0
357534,67.2148,-425.348,0,0
358835,68.9385,-424.119,0,0
360137,70.5654,-423.93,0,0
361438,71.0968,-424.134,0,0
362740.1,71.0188,-424.172,0,0
364041.725,70.5956,-424.053,0,0
365343.35,69.6117,-423.709,0,0
366644.975,68.4409,-422.709,0,0
367946.6,67.7773,-421.206,0,0
369248.225,67.7573,-420.078,0,0
370549.85,67.2601,-419.845,0,0
371851.475,65.93,-419.253,0,0
373153.1,64.6568,-418.189,0,0
374454.725,63.4529,-417.273,0,0
375756.35,61.9251,-416.24,0,0
377057.975,60.3797,-414.841,0,0
378359.6,58.8615,-413.84,0,0
379661,55.9798,-412.683,0,0
380963,53.4357,-409.124,0,0
382264,53.1973,-406.26,0,0
383566,52.2064,-404.852,0,0
384868,50.2538,-402.891,0,0
386169,48.3119,-400.26,0,0
387471,46.5836,-396.994,0,0
388773,45.4711,-393.429,0,0
390074,45.1744,-389.922,0,0
391376,45.4239,-387.194,0,0
392677,44.9305,-385.562,0,0
393979,43.2334,-383.196,0,0
395280.7,41.6899,-379.682,0,0
396582.325,40.9437,-375.632,0,0
397883.95,40.942,-371.62,0,0
399185.575,41.4323,-367.925,0,0
400006.6,41.8472,-365.782,0,0