Folder: ML_Dmg_Mehdi_Dataset/Accelerated corrosion test data/2025-10-22_06-00-04

Note: README.md
# ML_Dmg_Mehdi_Dataset

File: sample_1.csv
Frequency (Hz),Impedance (ohms),Phase (Radians),Temperature (C),Humidity (%)
10000.0,242.046,-12214.3,0,0
11301.625,215.631,-10818.5,0,0
12603.25,195.774,-9717.12,0,0
13904.875,183.015,-8792.37,0,0
15206.5,190.542,-8058.92,0,0
16508.125,155.553,-7436.15,0,0
17809.75,146.413,-6899.27,0,0
19111.375,136.064,-6430.28,0,0
20413.0,156.427,-5985.66,0,0
21714.625,136.461,-5668.48,0,0
23016.25,122.338,-5367.74,0,0
24317.875,113.285,-5074.45,0,0
25619.5,105.871,-4809.46,0,0
26921.1,113.883,-4559.22,0,0
28222.7,110.77,-4356.57,0,0
29524.4,107.808,-4191.2,0,0
30826,101.427,-4003.25,0,0
32127.6,98.0401,-3845.49,0,0
33429.2,89.5632,-3701.76,0,0
34730.9,81.8768,-3559.64,0,0
36032.5,78.1312,-3428.41,0,0
37334.1,75.4497,-3306.14,0,0
38635.7,72.8465,-3192.4,0,0
39937.4,71.2128,-3085.36,0,0
41239,72.4599,-2986.48,0,0
42540.6,70.5943,-2893.96,0,0
43842.225,67.9222,-2807.66,0,0
45143.85,68.488,-2726.12,0,0
46445.475,65.1223,-2649.02,0,0
47747.1,64.0493,-2575.54,0,0
49048.725,61.5535,-2505.34,0,0
50350.35,59.5736,-2438.68,0,0
51651.975,58.8505,-2375.17,0,0
52953.6,57.6988,-2314.13,0,0
54255.225,56.7179,-2257.15,0,0
55556.85,55.7493,-2201.46,0,0
56858.475,54.7869,-2148.37,0,0
58160.1,54.5516,-2097.76,0,0
59461.7,54.2705,-2049.82,0,0
60763.3,54.409,-2004,0,0
62065,53.0306,-1959.94,0,0
63366.6,52.4428,-1916.37,0,0
64668.2,52.7709,-1874.09,0,0
65969.8,55.0235,-1836.28,0,0
67271.5,53.6147,-1799.97,0,0
68573.1,53.0611,-1764.04,0,0
69874.7,52.1106,-1730.14,0,0
71176.3,50.0145,-1695.33,0,0
72478,48.2197,-1661.82,0,0
73779.6,47.937,-1628.41,0,0
75081.2,48.4021,-1596.04,0,0
76382.825,48.8633,-1565.18,0,0
77684.45,50.0748,-1535.64,0,0
78986.075,51.7719,-1508.15,0,0
80287.7,50.8739,-1481.57,0,0
81589.325,50.2739,-1453.79,0,0
82890.95,50.8727,-1426.98,0,0
84192.575,52.4412,-1400.74,0,0
85494.2,54.2889,-1375.94,0,0
86795.825,55.4993,-1352.66,0,0
88097.45,55.932,-1329.46,0,0
89399.075,57.7385,-1304.54,0,0
90700.7,60.9119,-1281.61,0,0
92002.3,67.2409,-1260.4,0,0
93303.9,74.7339,-1242.51,0,0
94605.6,73.3561,-1236.37,0,0
95907.2,67.1012,-1217.09,0,0
97208.8,65.2817,-1196.75,0,0
98510.4,64.314,-1176.61,0,0
99812.1,63.4686,-1157.11,0,0
101114,63.0124,-1136.76,0,0
102415,63.438,-1114.96,0,0
103717,68.541,-1093.81,0,0
105019,75.1459,-1076.86,0,0
106320.175,80.5979,-1060.6,0,0
107621.8,87.0506,-1047.57,0,0
108923.425,91.5262,-1036.44,0,0
110225.05,94.0065,-1027.64,0,0
111526.675,94.1383,-1015.27,0,0
112828.3,97.5037,-1005.63,0,0
114129.925,96.3895,-998.633,0,0
115431.55,92.9395,-989.245,0,0
116733.175,88.476,-977.595,0,0
118034.8,83.7192,-963.709,0,0
119336.425,81.5688,-948.256,0,0
120638.05,81.5651,-933.845,0,0
121939.675,80.2341,-921.207,0,0
123241,78.8114,-906.299,0,0
124543,78.8266,-891.46,0,0
125845,79.281,-876.755,0,0
127146,80.3501,-862.267,0,0
128448,82.1745,-847.584,0,0
129749,85.0704,-833.476,0,0
131051,89.6388,-820.339,0,0
132353,93.8602,-809.336,0,0
133654,96.7424,-798.663,0,0
134956,99.9179,-787.853,0,0
136258,103.202,-777.122,0,0
137559,108.449,-767.726,0,0
138860.775,110.641,-762.058,0,0
140162.4,109.811,-753.626,0,0
141464.025,109.777,-743.696,0,0
142765.65,110.184,-732.86,0,0
144067.275,111.62,-721.27,0,0
145368.9,114.159,-709.836,0,0
146670.525,117.772,-700.241,0,0
147972.15,119.313,-692.184,0,0
149273.775,120.661,-681.762,0,0
150575.4,121.979,-672.789,0,0
151877.025,120.998,-661.688,0,0
153178.65,120.846,-646.924,0,0
154480,124.509,-630.711,0,0
155782,131.253,-613.872,0,0
157084,143.11,-598.112,0,0
158385,155.269,-589.429,0,0
159687,164.067,-577.622,0,0
160988,182.252,-565.472,0,0
162290,201.879,-565.577,0,0
163592,212.538,-567.314,0,0
164893,226.375,-566.932,0,0
166195,239.718,-573.51,0,0
167497,247.594,-584.138,0,0
168798,247.334,-597.147,0,0
170100,239.156,-605.158,0,0
171401.375,230.549,-603.888,0,0
172703.0,226.261,-599.155,0,0
174004.625,223.81,-595.633,0,0
175306.25,222.149,-591.444,0,0
176607.875,220.782,-588.984,0,0
177909.5,218.611,-585.043,0,0
179211.125,215.809,-584.33,0,0
180512.75,207.112,-581.938,0,0
181814.375,199.018,-572.855,0,0
183116.0,192.333,-561.59,0,0
184417.625,187.585,-547.436,0,0
185719.25,186.322,-532.022,0,0
187021,187.044,-517.248,0,0
188322,190.666,-501.897,0,0
189624,194.223,-488.485,0,0
190926,196.885,-473.39,0,0
192227,202.566,-456.363,0,0
193529,210.859,-438.589,0,0
194831,221.855,-421.774,0,0
196132,235.441,-404.783,0,0
197434,251.692,-389.109,0,0
198735,269.55,-374.57,0,0
200037,288.587,-359.088,0,0
201339,312.335,-343.481,0,0
202640.35,344.05,-326.2,0,0
203941.975,387.027,-315.974,0,0
205243.6,438.468,-321.874,0,0
206545.225,484.087,-347.016,0,0
207846.85,515.121,-382.713,0,0
209148.475,533.706,-422.526,0,0
210450.1,534.333,-462.688,0,0
211751.725,521.097,-482.186,0,0
213053.35,521.197,-483.89,0,0
214354.975,533.565,-494.543,0,0
215656.6,543.534,-509.443,0,0
216958.225,553.841,-524.808,0,0
218259.85,563.363,-541.737,0,0
219561,576.934,-556.667,0,0
220863,595.638,-580.09,0,0
222165,613.4,-615.824,0,0
223466,620.618,-662.499,0,0
224768,611.951,-711.466,0,0
226070,594.368,-756.34,0,0
227371,563.944,-799.258,0,0
228673,523.672,-832.83,0,0
229974,477.119,-851.296,0,0
231276,434.534,-856.277,0,0
232578,398.329,-853.8,0,0
233879,369.28,-847.178,0,0
235180.95,346.965,-842.581,0,0
236482.575,322.878,-839.29,0,0
237784.2,299.144,-833.662,0,0
239085.825,276.568,-825.034,0,0
240387.45,256.845,-814.279,0,0
241689.075,239.707,-802.994,0,0
242990.7,224.626,-790.662,0,0
244292.325,212.546,-779.051,0,0
245593.95,200.803,-768.61,0,0
246895.575,188.817,-757.684,0,0
248197.2,178.46,-745.003,0,0
249498.825,169.576,-732.427,0,0
250800,162.56,-719.677,0,0
252102,156.695,-707.956,0,0
253404,150.772,-695.667,0,0
254705,147.076,-682.622,0,0
256007,145.051,-670.994,0,0
257309,143.264,-659.723,0,0
258610,142.435,-648.053,0,0
259912,144.173,-636.301,0,0
261213,148.041,-626.809,0,0
262515,152.507,-619.485,0,0
263817,157.358,-613.776,0,0
265118,163.296,-609.629,0,0
266420,170.211,-609.593,0,0
267721.55,174.239,-615.205,0,0
269023.175,170.66,-622.793,0,0
270324.8,160.834,-625.809,0,0
271626.425,149.687,-622.086,0,0
272928.05,142.273,-613.492,0,0
274229.675,138.975,-604.64,0,0
275531.3,137.635,-596.462,0,0
276832.925,138.348,-589.2,0,0
278134.55,140.223,-584.153,0,0
279436.175,141.159,-581.284,0,0
280737.8,140.659,-578.193,0,0
282039.425,140.738,-575.58,0,0
283341,138.7,-573.3,0,0
284643,137.271,-569.576,0,0
285944,135.71,-566.756,0,0
287246,131.932,-562.666,0,0
288548,129.677,-554.955,0,0
289849,131.705,-547.535,0,0
291151,134.746,-544.129,0,0
292452,135.278,-541.56,0,0
293754,134.879,-537.743,0,0
295056,134.827,-532.423,0,0
296357,136.677,-526.058,0,0
297659,140.981,-520.868,0,0
298960.525,145.874,-517.402,0,0
300262.15,150.919,-514.786,0,0
301563.775,157.273,-513.144,0,0
302865.4,163.793,-514.889,0,0
304167.025,168.545,-517.497,0,0
305468.65,172.56,-521.34,0,0
306770.275,176.386,-526.177,0,0
308071.9,178.016,-533.532,0,0
309373.525,176.647,-540.655,0,0
310675.15,174.017,-546.824,0,0
311976.775,169.221,-552.676,0,0
313278.4,163.325,-557.013,0,0
314580,157.374,-559.724,0,0
315882,151.019,-562.468,0,0
317183,143.199,-564.371,0,0
318485,134.899,-564.386,0,0
319787,126.558,-562.687,0,0
321088,118.75,-559.637,0,0
322390,111.58,-554.723,0,0
323691,106.669,-548.404,0,0
324993,103.946,-542.645,0,0
326295,102.585,-537.951,0,0
327596,101.582,-534.886,0,0
328898,99.9955,-532.717,0,0
330200,97.7809,-531.035,0,0
331501.125,95.0153,-529.422,0,0
332802.75,91.6248,-527.549,0,0
334104.375,87.7865,-525.29,0,0
335406.0,83.6656,-522.161,0,0
336707.625,80.1044,-518.354,0,0
338009.25,76.9042,-514.392,0,0
339310.875,74.1851,-510.243,0,0
340612.5,71.7113,-506.065,0,0
341914.125,69.5487,-502.105,0,0
343215.75,67.4658,-498.179,0,0
344517.375,65.3305,-494.178,0,0
345819.0,63.1699,-490.028,0,0
347121,61.1563,-485.518,0,0
348422,59.7231,-480.755,0,0
349724,58.8148,-476.101,0,0
351025,58.0703,-471.722,0,0
352327,57.5631,-467.467,0,0
353629,57.1716,-463.435,0,0
354930,56.7438,-459.459,0,0
356232,56.4453,-455.542,0,0
357534,56.3012,-451.667,0,0
358835,56.1168,-447.787,0,0
360137,56.2584,-443.943,0,0
361438,56.5406,-440.309,0,0
362740.1,56.6107,-436.799,0,0
364041.725,56.844,-433.007,0,0
365343.35,57.5279,-429.362,0,0
366644.975,58.0351,-425.992,0,0
367946.6,58.2444,-422.25,0,0
369248.225,59.1559,-417.9,0,0
370549.85,60.9623,-413.659,0,0
371851.475,63.6204,-409.855,0,0
373153.1,66.9539,-407.149,0,0
374454.725,70.0425,-405.478,0,0
375756.35,72.788,-404.443,0,0
377057.975,75.2694,-403.822,0,0
378359.6,77.3569,-403.872,0,0
379661,78.6168,-403.945,0,0
380963,80.1118,-403.556,0,0
382264,82.146,-404.378,0,0
383566,82.9926,-406.655,0,0
384868,81.787,-408.764,0,0
386169,79.7172,-409.864,0,0
387471,77.0526,-410.102,0,0
388773,74.3136,-409.172,0,0
390074,72.2435,-407.527,0,0
391376,70.714,-406.204,0,0
392677,68.7667,-405.009,0,0
393979,66.3587,-403.375,0,0
395280.7,63.9792,-401.079,0,0
396582.325,61.7775,-398.221,0,0
397883.95,60.0631,-394.783,0,0
399185.575,59.0277,-391.127,0,0
400006.6,58.6583,-388.938,0,0

File: sample_2.csv
Frequency (Hz),Impedance (ohms),Phase (Radians),Temperature (C),Humidity (%)
10000.0,233.294,-11465.4,0,0
11301.625,206.367,-10154.9,0,0
12603.25,185.969,-9116.85,0,0
13904.875,186.627,-8261.7,0,0
15206.5,169.683,-7572.43,0,0
16508.125,144.738,-6979.65,0,0
17809.75,134.851,-6470.4,0,0
19111.375,129.776,-6029.37,0,0
20413.0,119.272,-5644.48,0,0
21714.625,129.716,-5314.38,0,0
23016.25,113.664,-5017.96,0,0
24317.875,103.5,-4752.33,0,0
25619.5,98.6511,-4506.78,0,0
26921.1,95.4623,-4287.92,0,0
28222.7,90.7083,-4088,0,0
29524.4,93.3479,-3903.13,0,0
30826,88.5225,-3749.01,0,0
32127.6,82.8294,-3594.74,0,0
33429.2,80.1037,-3455.81,0,0
34730.9,76.0853,-3324.23,0,0
36032.5,73.4774,-3202.42,0,0
37334.1,71.3019,-3088.82,0,0
38635.7,69.1624,-2983.35,0,0
39937.4,66.9947,-2884.03,0,0
41239,65.7971,-2790.69,0,0
42540.6,64.7292,-2704.22,0,0
43842.225,63.2983,-2621.5,0,0
45143.85,61.9137,-2543.76,0,0
46445.475,61.65,-2471.3,0,0
47747.1,60.518,-2401.87,0,0
49048.725,60.6942,-2338,0,0
50350.35,57.9253,-2275.46,0,0
51651.975,56.6632,-2216.05,0,0
52953.6,55.107,-2158.52,0,0
54255.225,54.3251,-2103.62,0,0
55556.85,53.9246,-2051.51,0,0
56858.475,53.9019,-2001.57,0,0
58160.1,54.0725,-1954,0,0
59461.7,54.5584,-1907.97,0,0
60763.3,56.6274,-1865.34,0,0
62065,58.944,-1826.95,0,0
63366.6,55.6578,-1790.08,0,0
64668.2,52.6689,-1751.87,0,0
65969.8,50.8393,-1712.52,0,0
67271.5,51.2178,-1675.17,0,0
68573.1,53.78,-1641.06,0,0
69874.7,55.5663,-1610.4,0,0
71176.3,52.3457,-1582.56,0,0
72478,47.8167,-1552.06,0,0
73779.6,45.1859,-1518.68,0,0
75081.2,45.1746,-1486.31,0,0
76382.825,46.961,-1455.8,0,0
77684.45,49.8159,-1427.41,0,0
78986.075,52.901,-1403.41,0,0
80287.7,51.8618,-1381.72,0,0
81589.325,49.057,-1356.51,0,0
82890.95,47.9792,-1330.74,0,0
84192.575,48.6715,-1305.94,0,0
85494.2,49.2617,-1282.47,0,0
86795.825,50.4332,-1260.07,0,0
88097.45,51.025,-1238.81,0,0
89399.075,51.3119,-1217.42,0,0
90700.7,51.1945,-1197.2,0,0
92002.3,52.9265,-1175.72,0,0
93303.9,54.8055,-1156.87,0,0
94605.6,55.3618,-1140.52,0,0
95907.2,54.4077,-1120.69,0,0
97208.8,57.7782,-1103.46,0,0
98510.4,57.2526,-1089.6,0,0
99812.1,53.4106,-1074.45,0,0
101114,50.4336,-1057.2,0,0
102415,46.8725,-1037.18,0,0
103717,46.057,-1015.96,0,0
105019,49.5217,-995.682,0,0
106320.175,54.088,-978.307,0,0
107621.8,58.0604,-966.477,0,0
108923.425,56.2816,-954.744,0,0
110225.05,53.0283,-939.459,0,0
111526.675,51.6175,-921.42,0,0
112828.3,52.1111,-904.026,0,0
114129.925,53.7618,-886.847,0,0
115431.55,56.3795,-870.16,0,0
116733.175,59.8789,-854.616,0,0
118034.8,63.7842,-840.205,0,0
119336.425,68.1871,-828.009,0,0
120638.05,70.769,-817.811,0,0
121939.675,70.4539,-807.188,0,0
123241,69.4757,-794.599,0,0
124543,68.8929,-781.257,0,0
125845,68.362,-766.553,0,0
127146,69.5963,-751.091,0,0
128448,72.2003,-736.522,0,0
129749,75.0909,-722.934,0,0
131051,78.0767,-710.206,0,0
132353,79.486,-698.003,0,0
133654,80.9835,-684.478,0,0
134956,82.0591,-670.775,0,0
136258,84.2069,-655.681,0,0
137559,87.2104,-640.524,0,0
138860.775,90.4364,-625.787,0,0
140162.4,93.3942,-609.712,0,0
141464.025,99.0396,-591.144,0,0
142765.65,108.432,-574.125,0,0
144067.275,117.917,-558.616,0,0
145368.9,128.759,-543.656,0,0
146670.525,140.728,-529.145,0,0
147972.15,154.847,-514.319,0,0
149273.775,174.777,-499.335,0,0
150575.4,202.878,-493.536,0,0
151877.025,226.944,-502.7,0,0
153178.65,237.947,-518.464,0,0
154480,237.545,-529.55,0,0
155782,235.314,-533.08,0,0
157084,230.223,-534.814,0,0
158385,227.077,-530.661,0,0
159687,224.927,-525.274,0,0
160988,225.223,-517.912,0,0
162290,233.406,-515.286,0,0
163592,228.89,-521.493,0,0
164893,215.506,-518.716,0,0
166195,202.97,-505.818,0,0
167497,195.773,-488.293,0,0
168798,190.833,-467.447,0,0
170100,191.603,-444.099,0,0
171401.375,196.069,-421.718,0,0
172703.0,204.021,-397.981,0,0
174004.625,215.689,-374.267,0,0
175306.25,233.615,-350.811,0,0
176607.875,257.385,-331.346,0,0
177909.5,285.021,-320.356,0,0
179211.125,307.837,-319.349,0,0
180512.75,317.737,-319.308,0,0
181814.375,323.57,-302.979,0,0
183116.0,339.734,-284.118,0,0
184417.625,362.6,-260.785,0,0
185719.25,394.719,-242.579,0,0
187021,431.728,-227.722,0,0
188322,473.838,-220.108,0,0
189624,512.44,-218.011,0,0
190926,556.308,-210.442,0,0
192227,615.526,-208.245,0,0
193529,686.453,-222.468,0,0
194831,755.153,-264.619,0,0
196132,809.05,-322.241,0,0
197434,851.742,-385.343,0,0
198735,885.835,-464.116,0,0
200037,897.745,-547.416,0,0
201339,892.153,-635.526,0,0
202640.35,859.295,-712.343,0,0
203941.975,818.164,-777.144,0,0
205243.6,768.231,-831.592,0,0
206545.225,703.239,-864.664,0,0
207846.85,647.266,-877.056,0,0
209148.475,609.548,-882.862,0,0
210450.1,569.878,-897.549,0,0
211751.725,521.449,-904.088,0,0
213053.35,478.42,-894.268,0,0
214354.975,444.426,-880.798,0,0
215656.6,416.523,-865.638,0,0
216958.225,394.843,-847.69,0,0
218259.85,379.685,-831.144,0,0
219561,368.601,-815.909,0,0
220863,361.12,-803.039,0,0
222165,357.659,-792.469,0,0
223466,354.711,-786.503,0,0
224768,352.333,-781.972,0,0
226070,349.492,-779.613,0,0
227371,348.509,-778.86,0,0
228673,348.095,-783.491,0,0
229974,341.845,-793.234,0,0
231276,330.129,-800.333,0,0
232578,316.148,-806.709,0,0
233879,298.871,-809.801,0,0
235180.95,281.277,-809.416,0,0
236482.575,264.519,-806.904,0,0
237784.2,247.129,-802.295,0,0
239085.825,231.78,-794.966,0,0
240387.45,217.234,-786.672,0,0
241689.075,204.56,-776.687,0,0
242990.7,194.626,-765.992,0,0
244292.325,187.069,-757.093,0,0
245593.95,179.294,-751.008,0,0
246895.575,167.491,-745.69,0,0
248197.2,153.877,-736.09,0,0
249498.825,141.548,-723.358,0,0
250800,131.14,-707.731,0,0
252102,124.853,-690.254,0,0
253404,121.749,-673.943,0,0
254705,120.024,-658.235,0,0
256007,120.634,-641.848,0,0
257309,124.316,-627.382,0,0
258610,129.435,-614.359,0,0
259912,136.275,-603.123,0,0
261213,144.69,-594.303,0,0
262515,153.31,-588.489,0,0
263817,161.086,-584.87,0,0
265118,168.448,-582.952,0,0
266420,174.242,-582.981,0,0
267721.55,178.546,-583.518,0,0
269023.175,181.268,-584.843,0,0
270324.8,181.954,-584.665,0,0
271626.425,183.551,-581.941,0,0
272928.05,188.058,-578.609,0,0
274229.675,196.602,-576.763,0,0
275531.3,209.115,-582.224,0,0
276832.925,215.888,-597.707,0,0
278134.55,212.202,-613.703,0,0
279436.175,202.371,-625.448,0,0
280737.8,189.984,-632.319,0,0
282039.425,177.514,-636.262,0,0
283341,162.26,-636.925,0,0
284643,150.017,-631.919,0,0
285944,137.734,-627.87,0,0
287246,123.881,-618.169,0,0
288548,114.7,-601.153,0,0
289849,116.146,-581.887,0,0
291151,126.728,-568.209,0,0
292452,142.177,-565.495,0,0
293754,149.75,-574.398,0,0
295056,146.511,-579.602,0,0
296357,148.09,-577.841,0,0
297659,151.807,-587.691,0,0
298960.525,142.876,-596.623,0,0
300262.15,131.866,-598.198,0,0
301563.775,123.529,-595.272,0,0
302865.4,118.66,-592.347,0,0
304167.025,114.078,-592.048,0,0
305468.65,106.865,-592.016,0,0
306770.275,98.308,-589.365,0,0
308071.9,90.6345,-584.824,0,0
309373.525,83.9677,-579.246,0,0
310675.15,78.2568,-573.163,0,0
311976.775,73.4073,-566.638,0,0
313278.4,69.5103,-559.951,0,0
314580,66.2891,-553.363,0,0
315882,63.6689,-546.984,0,0
317183,61.3963,-540.494,0,0
318485,59.8257,-534.138,0,0
319787,58.6685,-528.218,0,0
321088,57.522,-522.502,0,0
322390,56.5824,-516.675,0,0
323691,55.8626,-510.579,0,0
324993,55.8936,-503.899,0,0
326295,58.0033,-497.323,0,0
327596,61.4411,-493.151,0,0
328898,63.6897,-490.61,0,0
330200,65.7688,-488.708,0,0
331501.125,67.085,-488.017,0,0
332802.75,66.6608,-488.182,0,0
334104.375,64.2424,-487.287,0,0
335406.0,61.7627,-484.791,0,0
336707.625,59.6474,-481.644,0,0
338009.25,57.8543,-478.07,0,0
339310.875,56.2693,-474.23,0,0
340612.5,54.9604,-470.057,0,0
341914.125,54.0905,-465.66,0,0
343215.75,53.6561,-461.133,0,0
344517.375,53.7462,-456.54,0,0
345819.0,54.3427,-452.159,0,0
347121,55.3826,-448.067,0,0
348422,56.6992,-444.199,0,0
349724,58.465,-440.757,0,0
351025,60.4003,-438.081,0,0
352327,61.9347,-436.029,0,0
353629,63.0469,-433.939,0,0
354930,64.2757,-431.794,0,0
356232,65.5516,-429.72,0,0
357534,67.302,-427.833,0,0
358835,69.2425,-426.674,0,0
360137,70.7382,-426.428,0,0
361438,71.4543,-426.494,0,0
362740.1,71.5951,-426.591,0,0
364041.725,71.1677,-426.548,0,0
365343.35,70.2766,-425.955,0,0
366644.975,69.4592,-424.929,0,0
367946.6,69.018,-423.565,0,0
369248.225,69.0622,-422.703,0,0
370549.85,68.3933,-422.53,0,0
371851.475,67.1481,-421.775,0,0
373153.1,66.2762,-420.897,0,0
374454.725,65.0597,-420.246,0,0
375756.35,63.4133,-419.303,0,0
377057.975,61.8683,-418.02,0,0
378359.6,60.3314,-417.115,0,0
379661,57.4759,-416.022,0,0
380963,54.8822,-412.493,0,0
382264,54.8485,-409.798,0,0
383566,53.6471,-408.668,0,0
384868,51.4813,-406.827,0,0
386169,49.3465,-404.197,0,0
387471,47.5978,-400.999,0,0
388773,46.18,-397.486,0,0
390074,45.763,-393.737,0,0
391376,46.0072,-390.993,0,0
392677,45.4568,-389.267,0,0
393979,43.771,-387.019,0,0
395280.7,41.9517,-383.53,0,0
396582.325,41.0403,-379.291,0,0
397883.95,40.9439,-375.036,0,0
399185.575,41.5201,-371.17,0,0
400006.6,42.0085,-368.945,0,0