Folder: ML_Dmg_Mehdi_Dataset/Accelerated corrosion test data/2025-10-20_13-55-17 (part 3)

File: sample_8.csv
Frequency (Hz),Impedance (ohms),Phase (Radians),Temperature (C),Humidity (%)
10000.0,306.484,-10978.9,0,0
11301.625,271.561,-9729.63,0,0
12603.25,250.168,-8737.23,0,0
13904.875,221.483,-7935.96,0,0
15206.5,201.948,-7261.46,0,0
16508.125,186.744,-6694.56,0,0
17809.75,173.405,-6207.67,0,0
19111.375,165.771,-5784.45,0,0
20413.0,159.679,-5423.42,0,0
21714.625,147.898,-5103.05,0,0
23016.25,142.877,-4819.79,0,0
24317.875,131.07,-4563.07,0,0
25619.5,124.457,-4329.89,0,0
26921.1,119.428,-4118.81,0,0
28222.7,116.388,-3928.67,0,0
29524.4,113.048,-3756.13,0,0
30826,108.57,-3598.19,0,0
32127.6,104.87,-3450.17,0,0
33429.2,104.641,-3313.04,0,0
34730.9,106.195,-3188.38,0,0
36032.5,109.134,-3077.97,0,0
37334.1,105.514,-2979.01,0,0
38635.7,95.0078,-2881.91,0,0
39937.4,87.4175,-2784.78,0,0
41239,84.7591,-2694.23,0,0
42540.6,81.5397,-2609.15,0,0
43842.225,80.7847,-2531.83,0,0
45143.85,76.7478,-2457.15,0,0
46445.475,73.958,-2386.07,0,0
47747.1,71.9525,-2318.5,0,0
49048.725,69.9226,-2254.93,0,0
50350.35,68.1079,-2194.03,0,0
51651.975,67.1533,-2135.92,0,0
52953.6,66.5549,-2081.07,0,0
54255.225,65.6847,-2031,0,0
55556.85,62.6726,-1981.72,0,0
56858.475,60.6328,-1932.88,0,0
58160.1,59.6987,-1886.32,0,0
59461.7,58.8563,-1842.5,0,0
60763.3,57.7008,-1799.61,0,0
62065,57.1723,-1758.89,0,0
63366.6,57.703,-1719.36,0,0
64668.2,57.5658,-1683.16,0,0
65969.8,56.8802,-1647.97,0,0
67271.5,55.1601,-1613.36,0,0
68573.1,54.0884,-1579.41,0,0
69874.7,54.0574,-1546.28,0,0
71176.3,53.9168,-1515.06,0,0
72478,53.7283,-1485.38,0,0
73779.6,52.9224,-1456.11,0,0
75081.2,52.0617,-1427.5,0,0
76382.825,51.7596,-1399.49,0,0
77684.45,51.297,-1372.74,0,0
78986.075,50.5931,-1346.37,0,0
80287.7,50.0643,-1320.18,0,0
81589.325,50.243,-1294.38,0,0
82890.95,50.9961,-1269.45,0,0
84192.575,52.4554,-1246.08,0,0
85494.2,51.6854,-1224.01,0,0
86795.825,51.8133,-1200.33,0,0
88097.45,52.4928,-1177.7,0,0
89399.075,53.2642,-1155.09,0,0
90700.7,55.6647,-1132,0,0
92002.3,59.5542,-1112.57,0,0
93303.9,61.2786,-1092.72,0,0
94605.6,63.6185,-1074.43,0,0
95907.2,65.2662,-1054.99,0,0
97208.8,68.7149,-1035.59,0,0
98510.4,73.7095,-1017.4,0,0
99812.1,78.5892,-1002.49,0,0
101114,83.7617,-988.722,0,0
102415,86.6549,-977.853,0,0
103717,86.8352,-966.055,0,0
105019,85.6909,-954.143,0,0
106320.175,85.1281,-939.568,0,0
107621.8,85.1452,-926.263,0,0
108923.425,85.029,-911.355,0,0
110225.05,86.8729,-898.127,0,0
111526.675,87.5215,-885.478,0,0
112828.3,88.2945,-873.655,0,0
114129.925,88.0478,-861.844,0,0
115431.55,88.0128,-850.216,0,0
116733.175,86.3148,-838.007,0,0
118034.8,85.9506,-825.212,0,0
119336.425,85.6331,-813.12,0,0
120638.05,84.5634,-800.68,0,0
121939.675,84.0569,-788.199,0,0
123241,83.3317,-775.845,0,0
124543,82.1683,-763.353,0,0
125845,80.9486,-750.162,0,0
127146,80.204,-736.371,0,0
128448,80.231,-722.397,0,0
129749,80.1289,-708.833,0,0
131051,81.1861,-694.171,0,0
132353,82.3871,-681.065,0,0
133654,83.0845,-667.797,0,0
134956,84.3371,-653.52,0,0
136258,86.7532,-640.589,0,0
137559,86.6462,-628.075,0,0
138860.775,86.553,-612.377,0,0
140162.4,88.7323,-596.568,0,0
141464.025,91.0862,-580.675,0,0
142765.65,93.8014,-563.621,0,0
144067.275,98.6278,-545.907,0,0
145368.9,105.479,-527.382,0,0
146670.525,114.537,-509.696,0,0
147972.15,123.995,-494.468,0,0
149273.775,135.132,-475.016,0,0
150575.4,154.164,-456.133,0,0
151877.025,180.865,-448.09,0,0
153178.65,199.566,-451.342,0,0
154480,209.29,-453.815,0,0
155782,223.383,-454.9,0,0
157084,221.567,-465.654,0,0
158385,220.205,-455.172,0,0
159687,227.998,-453.543,0,0
160988,221.344,-450.583,0,0
162290,226.42,-433.72,0,0
163592,237.629,-431.054,0,0
164893,242.091,-429.465,0,0
166195,241.262,-432.478,0,0
167497,230.057,-427.519,0,0
168798,220.347,-412.557,0,0
170100,215.217,-390.088,0,0
171401.375,215.682,-365.126,0,0
172703.0,223.545,-337.127,0,0
174004.625,236.647,-312.526,0,0
175306.25,247.543,-290.478,0,0
176607.875,263.739,-261.177,0,0
177909.5,282.768,-232.196,0,0
179211.125,314.734,-199.1,0,0
180512.75,356.718,-172.857,0,0
181814.375,404.223,-152.192,0,0
183116.0,462.794,-149.333,0,0
184417.625,505.542,-154.99,0,0
185719.25,559.426,-159.567,0,0
187021,607.917,-179.645,0,0
188322,647.379,-202.345,0,0
189624,681.984,-225.725,0,0
190926,718.801,-242.059,0,0
192227,760.172,-270.842,0,0
193529,805.426,-284.704,0,0
194831,881.014,-325.779,0,0
196132,949.319,-406.16,0,0
197434,987.007,-523.515,0,0
198735,970.845,-653.327,0,0
200037,904.111,-760.815,0,0
201339,824.161,-816.486,0,0
202640.35,738.093,-857.171,0,0
203941.975,660.452,-851.921,0,0
205243.6,602.838,-838.156,0,0
206545.225,561.719,-805.779,0,0
207846.85,551.292,-777.059,0,0
209148.475,548.549,-765.203,0,0
210450.1,547.8,-753.876,0,0
211751.725,558.426,-752.898,0,0
213053.35,566.339,-768.119,0,0
214354.975,564.278,-788.194,0,0
215656.6,557.874,-810.685,0,0
216958.225,541.799,-835.411,0,0
218259.85,519.633,-856.39,0,0
219561,490.1,-872.85,0,0
220863,456.334,-880.005,0,0
222165,426.999,-876.399,0,0
223466,404.482,-867.697,0,0
224768,390.879,-861.316,0,0
226070,380.48,-861.538,0,0
227371,364.074,-866.952,0,0
228673,344.315,-866.997,0,0
229974,326.908,-869.265,0,0
231276,303.073,-871.469,0,0
232578,276.128,-867.815,0,0
233879,247.895,-858.261,0,0
235180.95,222.806,-840.205,0,0
236482.575,205.874,-818.427,0,0
237784.2,194.684,-797.403,0,0
239085.825,188.551,-776.293,0,0
240387.45,188.579,-760.61,0,0
241689.075,187.766,-751.781,0,0
242990.7,181.466,-743.239,0,0
244292.325,175.465,-731.857,0,0
245593.95,171.421,-719.67,0,0
246895.575,170.543,-707.928,0,0
248197.2,169.11,-698.827,0,0
249498.825,167.484,-689.372,0,0
250800,167.238,-679.53,0,0
252102,169.398,-670.962,0,0
253404,172.129,-666.277,0,0
254705,170.98,-664.218,0,0
256007,166.284,-659.965,0,0
257309,160.965,-651.704,0,0
258610,159.228,-640.012,0,0
259912,162.231,-629.251,0,0
261213,166.19,-621.874,0,0
262515,169.665,-616.027,0,0
263817,172.221,-608.896,0,0
265118,176.524,-600.041,0,0
266420,186.269,-589.712,0,0
267721.55,204.093,-584.098,0,0
269023.175,224.162,-589.588,0,0
270324.8,241.724,-603.403,0,0
271626.425,251.972,-628.316,0,0
272928.05,250.015,-657.398,0,0
274229.675,230.898,-684.836,0,0
275531.3,202.134,-696.956,0,0
276832.925,175.679,-696.704,0,0
278134.55,153.813,-689.292,0,0
279436.175,137.015,-677.087,0,0
280737.8,127.638,-662.683,0,0
282039.425,123.509,-651.25,0,0
283341,121.038,-642.983,0,0
284643,118.393,-635.191,0,0
285944,118.355,-627.631,0,0
287246,121.826,-623.776,0,0
288548,123.04,-627.663,0,0
289849,115.871,-632.6,0,0
291151,104.989,-631.693,0,0
292452,94.8103,-627.745,0,0
293754,85.4914,-621.071,0,0
295056,77.8937,-612.466,0,0
296357,72.7836,-603.318,0,0
297659,68.8321,-594.695,0,0
298960.525,65.696,-585.821,0,0
300262.15,63.861,-576.826,0,0
301563.775,63.4911,-568.031,0,0
302865.4,64.6532,-560.315,0,0
304167.025,66.4814,-554.048,0,0
305468.65,68.5027,-549.021,0,0
306770.275,70.3245,-545.388,0,0
308071.9,71.7534,-542.552,0,0
309373.525,72.1121,-541.106,0,0
310675.15,70.9458,-538.836,0,0
311976.775,70.1135,-536.209,0,0
313278.4,68.8764,-533.923,0,0
314580,67.0754,-531.28,0,0
315882,65.1471,-528.102,0,0
317183,63.6978,-524.309,0,0
318485,62.5448,-520.792,0,0
319787,61.7536,-517.033,0,0
321088,61.4871,-514.129,0,0
322390,60.7479,-511.698,0,0
323691,59.3958,-509.728,0,0
324993,57.1703,-507.307,0,0
326295,54.9363,-503.985,0,0
327596,53.1159,-500.418,0,0
328898,51.3602,-496.9,0,0
330200,49.5777,-492.977,0,0
331501.125,48.0152,-488.907,0,0
332802.75,46.7786,-484.446,0,0
334104.375,46.1505,-479.878,0,0
335406.0,46.3265,-475.66,0,0
336707.625,46.6035,-472.409,0,0
338009.25,46.4313,-469.538,0,0
339310.875,45.7165,-466.786,0,0
340612.5,44.7247,-463.788,0,0
341914.125,43.5917,-460.352,0,0
343215.75,42.586,-456.537,0,0
344517.375,41.8546,-452.467,0,0
345819.0,41.6166,-448.227,0,0
347121,41.7581,-444.109,0,0
348422,42.1465,-440.174,0,0
349724,42.8166,-436.366,0,0
351025,43.8699,-432.755,0,0
352327,45.0922,-429.695,0,0
353629,46.2172,-426.95,0,0
354930,47.185,-424.463,0,0
356232,48.1341,-422.232,0,0
357534,48.8087,-420.15,0,0
358835,49.3694,-418.1,0,0
360137,49.89,-415.993,0,0
361438,50.4216,-414.02,0,0
362740.1,50.8223,-412.193,0,0
364041.725,51.036,-410.354,0,0
365343.35,51.257,-408.525,0,0
366644.975,51.3222,-406.635,0,0
367946.6,51.381,-404.577,0,0
369248.225,51.5984,-402.343,0,0
370549.85,52.4941,-400.271,0,0
371851.475,53.3965,-399.06,0,0
373153.1,53.7051,-398.412,0,0
374454.725,53.2342,-397.78,0,0
375756.35,52.0278,-396.444,0,0
377057.975,51.3493,-394.404,0,0
378359.6,50.8487,-392.851,0,0
379661,49.6434,-390.782,0,0
380963,49.5471,-387.822,0,0
382264,50.3406,-386.344,0,0
383566,49.8584,-385.604,0,0
384868,48.4987,-384.386,0,0
386169,46.8173,-382.382,0,0
387471,45.301,-379.671,0,0
388773,44.2788,-376.515,0,0
390074,43.8745,-373.317,0,0
391376,43.7282,-370.384,0,0
392677,43.6581,-367.625,0,0
393979,43.4909,-364.796,0,0
395280.7,43.5084,-361.805,0,0
396582.325,43.8338,-358.876,0,0
397883.95,44.2062,-356.202,0,0
399185.575,44.597,-353.591,0,0
400006.6,44.8256,-351.977,0,0