Folder: ML_Dmg_Mehdi_Dataset/Accelerated corrosion test data/2025-10-14_08-28-47

Note: README.md
# ML_Dmg_Mehdi_Dataset

File: sample_1.csv
Frequency (Hz),Impedance (ohms),Phase (Radians),Temperature (C),Humidity (%)
10000.0,240.842,-12195.1,0,0
11301.625,214.187,-10802.5,0,0
12603.25,194.772,-9703.08,0,0
13904.875,182.567,-8779.39,0,0
15206.5,185.923,-8053.02,0,0
16508.125,155.684,-7426.04,0,0
17809.75,146.8,-6889.27,0,0
19111.375,135.584,-6420.06,0,0
20413.0,157.115,-5977.94,0,0
21714.625,136.431,-5660.83,0,0
23016.25,122.36,-5356.82,0,0
24317.875,112.346,-5064.82,0,0
25619.5,104.841,-4800.73,0,0
26921.1,114.512,-4551.89,0,0
28222.7,110.483,-4348.43,0,0
29524.4,107.465,-4182.5,0,0
30826,100.636,-3995.49,0,0
32127.6,97.8041,-3837.59,0,0
33429.2,89.0122,-3694.32,0,0
34730.9,81.7975,-3552.51,0,0
36032.5,77.9973,-3421.46,0,0
37334.1,75.2166,-3299.35,0,0
38635.7,72.8538,-3185.95,0,0
39937.4,71.2319,-3078.98,0,0
41239,72.2754,-2980.58,0,0
42540.6,70.8176,-2888.18,0,0
43842.225,68.0185,-2801.52,0,0
45143.85,68.3242,-2720.34,0,0
46445.475,65.4228,-2643.44,0,0
47747.1,63.9949,-2569.99,0,0
49048.725,61.5303,-2500.05,0,0
50350.35,59.6988,-2433.38,0,0
51651.975,58.7705,-2370.03,0,0
52953.6,57.7312,-2309.2,0,0
54255.225,56.6752,-2252.29,0,0
55556.85,55.8397,-2196.85,0,0
56858.475,54.9067,-2143.88,0,0
58160.1,54.6517,-2093.36,0,0
59461.7,54.4884,-2045.43,0,0
60763.3,54.5199,-1999.52,0,0
62065,53.1917,-1955.65,0,0
63366.6,52.5214,-1912.07,0,0
64668.2,53.1014,-1870.04,0,0
65969.8,55.2392,-1832.25,0,0
67271.5,53.7832,-1795.62,0,0
68573.1,53.3231,-1760.14,0,0
69874.7,52.1564,-1726.25,0,0
71176.3,50.4316,-1691.77,0,0
72478,48.5654,-1658.11,0,0
73779.6,48.2636,-1624.68,0,0
75081.2,48.6269,-1592.45,0,0
76382.825,49.3889,-1561.42,0,0
77684.45,50.2874,-1532.18,0,0
78986.075,52.0028,-1504.61,0,0
80287.7,51.2147,-1478.27,0,0
81589.325,50.622,-1450.3,0,0
82890.95,51.3183,-1423.45,0,0
84192.575,52.761,-1397.43,0,0
85494.2,55.0869,-1372.66,0,0
86795.825,56.0335,-1349.72,0,0
88097.45,56.4016,-1326.29,0,0
89399.075,58.222,-1301.87,0,0
90700.7,61.5706,-1278.49,0,0
92002.3,67.7373,-1257.64,0,0
93303.9,74.9478,-1240.82,0,0
94605.6,73.8438,-1233.36,0,0
95907.2,66.8257,-1214.85,0,0
97208.8,64.7566,-1194.32,0,0
98510.4,64.3248,-1173.63,0,0
99812.1,63.3103,-1154.02,0,0
101114,63.3569,-1134,0,0
102415,63.4019,-1112.53,0,0
103717,68.0352,-1091.28,0,0
105019,74.9875,-1073.85,0,0
106320.175,81.4067,-1057.56,0,0
107621.8,87.7568,-1045.25,0,0
108923.425,92.2191,-1034.48,0,0
110225.05,94.0904,-1026.39,0,0
111526.675,94.0224,-1013.63,0,0
112828.3,96.2411,-1004.12,0,0
114129.925,95.1496,-996.361,0,0
115431.55,91.5919,-986.799,0,0
116733.175,86.7083,-974.518,0,0
118034.8,82.561,-959.891,0,0
119336.425,80.9365,-944.205,0,0
120638.05,81.5512,-929.909,0,0
121939.675,80.4963,-917.44,0,0
123241,79.1033,-903.059,0,0
124543,78.8105,-888.023,0,0
125845,79.7023,-873.263,0,0
127146,80.9694,-858.916,0,0
128448,83.135,-844.528,0,0
129749,85.5873,-830.471,0,0
131051,90.573,-817.284,0,0
132353,94.7631,-806.971,0,0
133654,97.5274,-796.464,0,0
134956,100.295,-786.02,0,0
136258,103.012,-775.278,0,0
137559,107.876,-765.355,0,0
138860.775,110.102,-758.977,0,0
140162.4,109.753,-750.759,0,0
141464.025,109.508,-740.465,0,0
142765.65,110.079,-729.528,0,0
144067.275,111.487,-718.107,0,0
145368.9,113.88,-706.919,0,0
146670.525,116.808,-696.683,0,0
147972.15,119.279,-687.834,0,0
149273.775,121.326,-676.924,0,0
150575.4,123.173,-669.21,0,0
151877.025,121.731,-657.723,0,0
153178.65,121.678,-642.807,0,0
154480,125.614,-626.184,0,0
155782,133.136,-609.35,0,0
157084,145.103,-594.735,0,0
158385,157.802,-585.169,0,0
159687,167.88,-574.577,0,0
160988,186.054,-564.296,0,0
162290,205.02,-564.466,0,0
163592,216.227,-567.012,0,0
164893,227.564,-568.423,0,0
166195,240.389,-574.667,0,0
167497,246.403,-585.928,0,0
168798,244.726,-597.953,0,0
170100,235.958,-605.252,0,0
171401.375,227.894,-602.83,0,0
172703.0,224.073,-597.978,0,0
174004.625,220.324,-593.164,0,0
175306.25,219.088,-587.453,0,0
176607.875,219.18,-584.41,0,0
177909.5,217.756,-581.185,0,0
179211.125,213.775,-579.61,0,0
180512.75,206.838,-575.565,0,0
181814.375,199.903,-567.3,0,0
183116.0,193.61,-556.828,0,0
184417.625,187.957,-543.136,0,0
185719.25,186.666,-526.194,0,0
187021,188.341,-511.165,0,0
188322,191.441,-496.414,0,0
189624,195.304,-481.565,0,0
190926,200.061,-466.497,0,0
192227,205.552,-449.784,0,0
193529,214.647,-432.756,0,0
194831,224.99,-415.854,0,0
196132,238.438,-398.617,0,0
197434,254.446,-380.966,0,0
198735,274.538,-364.904,0,0
200037,295.823,-349.645,0,0
201339,322.598,-333.383,0,0
202640.35,357.99,-318.728,0,0
203941.975,401.189,-312.819,0,0
205243.6,452.951,-321.463,0,0
206545.225,496.639,-349.663,0,0
207846.85,526.187,-388.192,0,0
209148.475,540.292,-428.222,0,0
210450.1,538.046,-465.21,0,0
211751.725,527.703,-483.305,0,0
213053.35,524.804,-487.03,0,0
214354.975,537.398,-494.166,0,0
215656.6,550.342,-507.808,0,0
216958.225,560.47,-524.561,0,0
218259.85,571.992,-540.533,0,0
219561,587.079,-557.309,0,0
220863,606.653,-583.441,0,0
222165,624.613,-621.785,0,0
223466,629.054,-671.394,0,0
224768,619.08,-720.663,0,0
226070,597.716,-766.815,0,0
227371,567.371,-808.83,0,0
228673,524.171,-842.256,0,0
229974,476.447,-859.596,0,0
231276,432.505,-862.899,0,0
232578,396.651,-858.472,0,0
233879,368.59,-852.405,0,0
235180.95,344.671,-848.053,0,0
236482.575,319.552,-843.324,0,0
237784.2,296.218,-836.1,0,0
239085.825,274.078,-826.919,0,0
240387.45,254.726,-815.472,0,0
241689.075,238.089,-803.902,0,0
242990.7,223.602,-791.7,0,0
244292.325,211.226,-780.116,0,0
245593.95,199.335,-769.465,0,0
246895.575,187.5,-757.899,0,0
248197.2,177.489,-745.106,0,0
249498.825,169.265,-732.677,0,0
250800,162.238,-720.611,0,0
252102,155.993,-708.387,0,0
253404,150.38,-696.078,0,0
254705,146.343,-683.047,0,0
256007,144.335,-670.849,0,0
257309,142.958,-659.289,0,0
258610,142.294,-647.625,0,0
259912,144.114,-635.629,0,0
261213,148.359,-625.925,0,0
262515,153.518,-618.506,0,0
263817,159.016,-613.259,0,0
265118,164.923,-610.068,0,0
266420,171.599,-610.861,0,0
267721.55,174.102,-616.971,0,0
269023.175,169.452,-623.569,0,0
270324.8,159.203,-625.076,0,0
271626.425,149.051,-619.995,0,0
272928.05,142.796,-611.087,0,0
274229.675,140.562,-601.935,0,0
275531.3,140.321,-594.511,0,0
276832.925,141.127,-587.813,0,0
278134.55,143.386,-582.814,0,0
279436.175,145.448,-580.259,0,0
280737.8,145.994,-579.047,0,0
282039.425,144.7,-578.389,0,0
283341,141.387,-576.435,0,0
284643,138.285,-572.61,0,0
285944,135.995,-569.012,0,0
287246,131.792,-564.479,0,0
288548,129.316,-555.965,0,0
289849,131.757,-548.27,0,0
291151,134.759,-544.521,0,0
292452,136.012,-542.15,0,0
293754,134.871,-539.005,0,0
295056,134.061,-532.849,0,0
296357,136.881,-525.687,0,0
297659,141.565,-521.144,0,0
298960.525,146.421,-517.38,0,0
300262.15,151.937,-514.736,0,0
301563.775,158.214,-513.271,0,0
302865.4,165.11,-514.816,0,0
304167.025,170.034,-518.153,0,0
305468.65,174.196,-522.39,0,0
306770.275,177.475,-527.899,0,0
308071.9,178.348,-535.142,0,0
309373.525,176.829,-541.409,0,0
310675.15,175.051,-547.705,0,0
311976.775,171.022,-554.763,0,0
313278.4,163.78,-560.534,0,0
314580,155.53,-563.267,0,0
315882,148.233,-564.771,0,0
317183,140.168,-565.223,0,0
318485,132.146,-563.994,0,0
319787,124.588,-561.784,0,0
321088,117.508,-558.294,0,0
322390,111.165,-553.671,0,0
323691,106.393,-547.875,0,0
324993,103.383,-542.369,0,0
326295,101.568,-537.68,0,0
327596,100.304,-534.026,0,0
328898,98.9527,-531.279,0,0
330200,97.3847,-529.488,0,0
331501.125,94.8892,-527.674,0,0
332802.75,91.7537,-525.984,0,0
334104.375,88.1357,-523.892,0,0
335406.0,84.3994,-521.105,0,0
336707.625,80.7726,-517.653,0,0
338009.25,77.4915,-513.891,0,0
339310.875,74.3898,-509.678,0,0
340612.5,71.8884,-505.343,0,0
341914.125,69.6103,-501.307,0,0
343215.75,67.4345,-497.355,0,0
344517.375,65.2551,-493.199,0,0
345819.0,63.2853,-488.913,0,0
347121,61.3651,-484.484,0,0
348422,59.893,-479.643,0,0
349724,58.9895,-475.017,0,0
351025,58.2197,-470.474,0,0
352327,57.7629,-466.208,0,0
353629,57.4579,-462.078,0,0
354930,57.1424,-458.029,0,0
356232,57.0351,-454.051,0,0
357534,57.0115,-450.202,0,0
358835,57.0961,-446.442,0,0
360137,57.2412,-442.652,0,0
361438,57.6629,-439.046,0,0
362740.1,57.9163,-435.635,0,0
364041.725,58.2926,-432.024,0,0
365343.35,58.8676,-428.586,0,0
366644.975,59.4062,-425.392,0,0
367946.6,59.5506,-421.802,0,0
369248.225,60.2488,-417.413,0,0
370549.85,62.1492,-412.945,0,0
371851.475,65.1007,-409.11,0,0
373153.1,68.6904,-406.568,0,0
374454.725,72.2245,-405.391,0,0
375756.35,74.7432,-405.096,0,0
377057.975,76.6823,-404.82,0,0
378359.6,78.5954,-404.814,0,0
379661,79.7909,-405.042,0,0
380963,81.2452,-405.041,0,0
382264,82.8355,-406.557,0,0
383566,82.5807,-408.712,0,0
384868,80.9805,-410.536,0,0
386169,78.2948,-411.47,0,0
387471,75.0447,-410.859,0,0
388773,72.4007,-409.155,0,0
390074,70.5902,-407.084,0,0
391376,69.326,-405.224,0,0
392677,67.8812,-403.841,0,0
393979,65.7403,-402.443,0,0
395280.7,63.3302,-400.27,0,0
396582.325,61.1586,-397.126,0,0
397883.95,59.6365,-393.754,0,0
399185.575,58.5662,-390.265,0,0
400006.6,58.0339,-387.937,0,0

File: sample_2.csv
Frequency (Hz),Impedance (ohms),Phase (Radians),Temperature (C),Humidity (%)
10000.0,230.737,-11425.7,0,0
11301.625,204.777,-10120.5,0,0
12603.25,184.147,-9086.41,0,0
13904.875,187.727,-8241.12,0,0
15206.5,164.271,-7549.48,0,0
16508.125,143.775,-6954.6,0,0
17809.75,132.983,-6447.02,0,0
19111.375,128.8,-6008.65,0,0
20413.0,118.66,-5625.63,0,0
21714.625,127.612,-5296.74,0,0
23016.25,112.385,-4999.97,0,0
24317.875,102.955,-4733.21,0,0
25619.5,97.9091,-4489.92,0,0
26921.1,95.2764,-4271.52,0,0
28222.7,90.5109,-4072.21,0,0
29524.4,93.7,-3888.82,0,0
30826,88.0638,-3734.76,0,0
32127.6,82.1215,-3581.11,0,0
33429.2,80.0955,-3442.52,0,0
34730.9,75.8954,-3311.7,0,0
36032.5,73.329,-3190.7,0,0
37334.1,71.1815,-3077.12,0,0
38635.7,68.8237,-2972.1,0,0
39937.4,67.046,-2873.53,0,0
41239,65.562,-2780.81,0,0
42540.6,64.6312,-2694.04,0,0
43842.225,63.4447,-2611.5,0,0
45143.85,62.1571,-2534.27,0,0
46445.475,61.3094,-2461.59,0,0
47747.1,60.6874,-2392.28,0,0
49048.725,60.8013,-2328.64,0,0
50350.35,58.0618,-2266.47,0,0
51651.975,56.7311,-2207.39,0,0
52953.6,55.2545,-2150.11,0,0
54255.225,54.5243,-2095.44,0,0
55556.85,54.0604,-2043.56,0,0
56858.475,53.9993,-1993.86,0,0
58160.1,54.1367,-1946.52,0,0
59461.7,54.716,-1900.53,0,0
60763.3,56.3753,-1857.98,0,0
62065,59.0849,-1819.75,0,0
63366.6,55.7378,-1782.92,0,0
64668.2,53.1465,-1744.76,0,0
65969.8,50.7512,-1705.72,0,0
67271.5,51.4125,-1668.48,0,0
68573.1,53.4465,-1634.53,0,0
69874.7,56.1555,-1604.35,0,0
71176.3,52.5893,-1576.09,0,0
72478,47.9877,-1545.61,0,0
73779.6,45.2434,-1512.81,0,0
75081.2,45.3297,-1480.33,0,0
76382.825,47.0613,-1449.71,0,0
77684.45,49.8383,-1421.39,0,0
78986.075,53.0878,-1397.19,0,0
80287.7,51.8445,-1375.68,0,0
81589.325,49.3212,-1350.69,0,0
82890.95,48.1751,-1324.93,0,0
84192.575,48.876,-1300.21,0,0
85494.2,49.5616,-1276.69,0,0
86795.825,50.665,-1254.73,0,0
88097.45,51.1023,-1233.4,0,0
89399.075,51.4639,-1212.06,0,0
90700.7,51.3475,-1191.83,0,0
92002.3,52.9132,-1170.55,0,0
93303.9,55.3687,-1151.86,0,0
94605.6,55.4222,-1135.15,0,0
95907.2,54.4466,-1115.68,0,0
97208.8,57.8345,-1098.74,0,0
98510.4,57.7383,-1084.98,0,0
99812.1,53.4313,-1070.17,0,0
101114,50.6075,-1052.84,0,0
102415,47.0078,-1032.7,0,0
103717,46.1436,-1011.61,0,0
105019,49.3764,-991.275,0,0
106320.175,54.1809,-974.276,0,0
107621.8,57.716,-962.368,0,0
108923.425,56.2081,-950.254,0,0
110225.05,52.874,-935.049,0,0
111526.675,51.761,-917.131,0,0
112828.3,52.1702,-899.797,0,0
114129.925,53.7633,-882.62,0,0
115431.55,56.5792,-866.079,0,0
116733.175,59.9907,-850.792,0,0
118034.8,64.0289,-836.77,0,0
119336.425,67.6999,-824.663,0,0
120638.05,70.1286,-814.222,0,0
121939.675,69.5317,-803.208,0,0
123241,68.694,-790.349,0,0
124543,68.1354,-776.616,0,0
125845,68.2798,-761.787,0,0
127146,69.6636,-746.598,0,0
128448,72.6343,-732.176,0,0
129749,75.3932,-719.242,0,0
131051,78.0825,-706.358,0,0
132353,79.4573,-694.245,0,0
133654,80.7144,-680.589,0,0
134956,82.1112,-666.612,0,0
136258,84.3136,-651.631,0,0
137559,87.2467,-636.522,0,0
138860.775,90.4742,-621.661,0,0
140162.4,93.4875,-605.417,0,0
141464.025,99.2025,-586.519,0,0
142765.65,108.839,-569.288,0,0
144067.275,118.916,-554.064,0,0
145368.9,130.249,-538.804,0,0
146670.525,143.219,-524.688,0,0
147972.15,158.55,-510.745,0,0
149273.775,179.001,-497.707,0,0
150575.4,206.181,-493.934,0,0
151877.025,228.319,-504.743,0,0
153178.65,236.765,-519.501,0,0
154480,235.348,-530.413,0,0
155782,231.292,-533.388,0,0
157084,225.831,-533.126,0,0
158385,221.694,-526.208,0,0
159687,222.09,-519.55,0,0
160988,222.907,-512.864,0,0
162290,231.345,-509.157,0,0
163592,226.923,-516.085,0,0
164893,213.816,-513.245,0,0
166195,200.669,-499.519,0,0
167497,193.539,-480.541,0,0
168798,191.218,-458.391,0,0
170100,192.77,-436.378,0,0
171401.375,197.293,-413.881,0,0
172703.0,205.907,-389.954,0,0
174004.625,218.324,-365.715,0,0
175306.25,237.826,-341.313,0,0
176607.875,263.992,-324.837,0,0
177909.5,291.399,-314.464,0,0
179211.125,312.719,-315.198,0,0
180512.75,321.691,-313.385,0,0
181814.375,328.163,-297.592,0,0
183116.0,344.675,-277.37,0,0
184417.625,369.426,-253.947,0,0
185719.25,404.217,-235.766,0,0
187021,441.8,-224.02,0,0
188322,484.662,-216.409,0,0
189624,524.874,-215.104,0,0
190926,569.976,-210.38,0,0
192227,630.297,-209.821,0,0
193529,703.433,-228.107,0,0
194831,770.522,-276.117,0,0
196132,820.926,-336.851,0,0
197434,860.246,-402.412,0,0
198735,891.046,-482.878,0,0
200037,897.047,-566.287,0,0
201339,888.243,-654.973,0,0
202640.35,850.986,-733.188,0,0
203941.975,799.936,-792.939,0,0
205243.6,746.989,-839.693,0,0
206545.225,684.075,-866.018,0,0
207846.85,632.261,-873.748,0,0
209148.475,596.042,-879.176,0,0
210450.1,557.495,-891.87,0,0
211751.725,511.309,-895.204,0,0
213053.35,472.144,-884.392,0,0
214354.975,441.045,-870.354,0,0
215656.6,416.262,-855.927,0,0
216958.225,396.512,-839.669,0,0
218259.85,382.438,-824.497,0,0
219561,372.647,-810.194,0,0
220863,365.812,-799.084,0,0
222165,362.094,-788.804,0,0
223466,361.431,-785.211,0,0
224768,357.777,-784.053,0,0
226070,353.15,-782.118,0,0
227371,351.698,-782.597,0,0
228673,349.77,-788.496,0,0
229974,341.911,-798.644,0,0
231276,327.67,-806.28,0,0
232578,311.614,-810.893,0,0
233879,293.943,-812.274,0,0
235180.95,276.346,-810.876,0,0
236482.575,259.238,-807.412,0,0
237784.2,242.05,-801.766,0,0
239085.825,226.382,-793.668,0,0
240387.45,212.607,-784.124,0,0
241689.075,200.871,-774.276,0,0
242990.7,191.179,-763.875,0,0
244292.325,182.827,-755.19,0,0
245593.95,174.288,-747.848,0,0
246895.575,163.135,-741.396,0,0
248197.2,150.033,-730.737,0,0
249498.825,139.151,-717.024,0,0
250800,130.142,-701.436,0,0
252102,124.699,-684.229,0,0
253404,122.426,-668.043,0,0
254705,121.245,-652.167,0,0
256007,122.383,-636.417,0,0
257309,126.789,-622.064,0,0
258610,132.524,-610.032,0,0
259912,139.578,-599.305,0,0
261213,148.318,-591.186,0,0
262515,157.366,-585.954,0,0
263817,165.837,-583.55,0,0
265118,172.945,-583.478,0,0
266420,177.498,-584.943,0,0
267721.55,180.202,-586.13,0,0
269023.175,181.018,-587.038,0,0
270324.8,180.703,-585.257,0,0
271626.425,183.078,-581.161,0,0
272928.05,188.762,-577.511,0,0
274229.675,198.749,-576.694,0,0
275531.3,211.536,-584.429,0,0
276832.925,216.252,-601.884,0,0
278134.55,209.721,-617.6,0,0
279436.175,198.624,-627.959,0,0
280737.8,185.501,-633.624,0,0
282039.425,172.852,-636.216,0,0
283341,158.001,-635.333,0,0
284643,146.934,-630.127,0,0
285944,134.311,-626.219,0,0
287246,120.698,-615.049,0,0
288548,113.199,-597.906,0,0
289849,115.314,-578.904,0,0
291151,127.034,-565.916,0,0
292452,142.415,-565.079,0,0
293754,148.571,-574.614,0,0
295056,145.013,-579.114,0,0
296357,146.819,-578.899,0,0
297659,147.273,-588.551,0,0
298960.525,138.201,-594.844,0,0
300262.15,128.33,-595.746,0,0
301563.775,120.074,-592.434,0,0
302865.4,116.055,-589.295,0,0
304167.025,111.619,-589.187,0,0
305468.65,104.32,-589.062,0,0
306770.275,95.7453,-586.374,0,0
308071.9,87.8637,-581.229,0,0
309373.525,81.7256,-575.001,0,0
310675.15,76.7027,-568.843,0,0
311976.775,72.2435,-562.377,0,0
313278.4,68.7025,-555.637,0,0
314580,65.9342,-549.269,0,0
315882,63.5481,-542.964,0,0
317183,61.584,-536.667,0,0
318485,60.4212,-530.603,0,0
319787,59.4765,-525.028,0,0
321088,58.4484,-519.745,0,0
322390,57.446,-514.28,0,0
323691,56.6368,-508.466,0,0
324993,56.5236,-501.953,0,0
326295,58.6244,-495.498,0,0
327596,61.9858,-491.649,0,0
328898,64.0466,-489.469,0,0
330200,65.6317,-487.671,0,0
331501.125,66.4338,-486.867,0,0
332802.75,65.7478,-486.623,0,0
334104.375,63.3556,-485.441,0,0
335406.0,60.8297,-482.65,0,0
336707.625,58.8529,-479.264,0,0
338009.25,57.2256,-475.429,0,0
339310.875,55.8461,-471.381,0,0
340612.5,54.9505,-467.014,0,0
341914.125,54.5724,-462.726,0,0
343215.75,54.4307,-458.334,0,0
344517.375,54.749,-454.017,0,0
345819.0,55.6068,-449.808,0,0
347121,56.794,-446.118,0,0
348422,58.2225,-442.741,0,0
349724,59.8519,-439.695,0,0
351025,61.5136,-437.211,0,0
352327,62.9877,-435.348,0,0
353629,63.9307,-433.409,0,0
354930,65.0601,-431.386,0,0
356232,66.2677,-429.532,0,0
357534,67.7769,-427.891,0,0
358835,69.5193,-426.909,0,0
360137,70.8556,-426.744,0,0
361438,71.4066,-426.977,0,0
362740.1,71.0705,-427.178,0,0
364041.725,70.3384,-427.062,0,0
365343.35,69.2229,-426.565,0,0
366644.975,67.8393,-425.464,0,0
367946.6,66.9758,-423.755,0,0
369248.225,67.0085,-422.399,0,0
370549.85,66.4351,-422.084,0,0
371851.475,65.0016,-421.37,0,0
373153.1,63.766,-420.104,0,0
374454.725,62.6995,-419.034,0,0
375756.35,61.1401,-418.013,0,0
377057.975,59.4291,-416.529,0,0
378359.6,58.0284,-415.234,0,0
379661,55.3026,-413.995,0,0
380963,52.8336,-410.329,0,0
382264,52.8658,-407.484,0,0
383566,51.8415,-406.215,0,0
384868,49.8474,-404.316,0,0
386169,47.7741,-401.508,0,0
387471,46.2828,-398.163,0,0
388773,45.2741,-394.745,0,0
390074,44.8975,-391.218,0,0
391376,45.0006,-388.453,0,0
392677,44.5812,-386.598,0,0
393979,43.1025,-384.331,0,0
395280.7,41.553,-381.217,0,0
396582.325,40.7294,-377.222,0,0
397883.95,40.6864,-373.033,0,0
399185.575,41.2491,-369.478,0,0
400006.6,41.6258,-366.986,0,0