Folder: ML_Dmg_Mehdi_Dataset/Accelerated corrosion test data/2025-10-02_06-00-03

Note: README.md
# ML_Dmg_Mehdi_Dataset

File: sample_1.csv
Frequency (Hz),Impedance (ohms),Phase (Radians),Temperature (C),Humidity (%)
10000.0,240.531,-12236.2,0,0
11301.625,214.701,-10838.4,0,0
12603.25,200.189,-9736.3,0,0
13904.875,186.777,-8809.5,0,0
15206.5,182.145,-8079.02,0,0
16508.125,158.153,-7448.22,0,0
17809.75,151.417,-6912.95,0,0
19111.375,136.361,-6440.62,0,0
20413.0,156.437,-5997.97,0,0
21714.625,138.744,-5684.21,0,0
23016.25,123.221,-5375.65,0,0
24317.875,112.971,-5082.56,0,0
25619.5,104.771,-4817.98,0,0
26921.1,114.49,-4569.35,0,0
28222.7,111.309,-4364.44,0,0
29524.4,107.813,-4197,0,0
30826,101.285,-4010.38,0,0
32127.6,98.9986,-3850.89,0,0
33429.2,88.9643,-3707.04,0,0
34730.9,82.6017,-3565.05,0,0
36032.5,78.4115,-3433.62,0,0
37334.1,75.5446,-3310.94,0,0
38635.7,73.2052,-3197.27,0,0
39937.4,71.4836,-3090.12,0,0
41239,72.4953,-2990.7,0,0
42540.6,71.5255,-2898.87,0,0
43842.225,68.0369,-2811.05,0,0
45143.85,69.0379,-2729.3,0,0
46445.475,66.0102,-2653.13,0,0
47747.1,64.4565,-2579.32,0,0
49048.725,62.0392,-2508.82,0,0
50350.35,60.2713,-2442.1,0,0
51651.975,59.0204,-2378.29,0,0
52953.6,58.0963,-2317.1,0,0
54255.225,57.3278,-2259.96,0,0
55556.85,56.4368,-2204.48,0,0
56858.475,55.1415,-2151.49,0,0
58160.1,54.9901,-2100.72,0,0
59461.7,54.7723,-2052.62,0,0
60763.3,54.8749,-2006.45,0,0
62065,53.6232,-1962.41,0,0
63366.6,52.8888,-1918.67,0,0
64668.2,53.4905,-1876.58,0,0
65969.8,55.7255,-1838.7,0,0
67271.5,54.0226,-1801.71,0,0
68573.1,53.556,-1766.17,0,0
69874.7,52.4831,-1731.98,0,0
71176.3,50.8698,-1697.48,0,0
72478,49.2182,-1663.83,0,0
73779.6,48.6155,-1630.21,0,0
75081.2,49.0549,-1597.98,0,0
76382.825,49.9455,-1566.81,0,0
77684.45,50.4895,-1537.2,0,0
78986.075,52.3481,-1509.49,0,0
80287.7,51.4948,-1483.08,0,0
81589.325,51.2868,-1455.4,0,0
82890.95,51.4573,-1428.26,0,0
84192.575,53.2729,-1401.96,0,0
85494.2,55.0495,-1377.55,0,0
86795.825,56.2731,-1353.8,0,0
88097.45,56.787,-1330.68,0,0
89399.075,58.038,-1306.01,0,0
90700.7,61.8881,-1282.58,0,0
92002.3,68.2231,-1260.91,0,0
93303.9,76.009,-1243.78,0,0
94605.6,74.9192,-1236.62,0,0
95907.2,68.0317,-1218.65,0,0
97208.8,65.079,-1198.05,0,0
98510.4,64.597,-1177.95,0,0
99812.1,63.9249,-1157.38,0,0
101114,64.1593,-1138.02,0,0
102415,63.791,-1116.02,0,0
103717,68.1648,-1094.77,0,0
105019,75.012,-1076.69,0,0
106320.175,81.4066,-1060.64,0,0
107621.8,87.8766,-1048.25,0,0
108923.425,92.8058,-1037.08,0,0
110225.05,94.4583,-1027.84,0,0
111526.675,95.3083,-1016.07,0,0
112828.3,97.7118,-1006.36,0,0
114129.925,97.1619,-999.006,0,0
115431.55,93.1525,-990.097,0,0
116733.175,87.7055,-977.655,0,0
118034.8,83.5992,-962.957,0,0
119336.425,82.2166,-947.294,0,0
120638.05,82.4092,-933.111,0,0
121939.675,81.3408,-920.573,0,0
123241,79.6008,-905.928,0,0
124543,79.5692,-890.802,0,0
125845,80.2472,-876.206,0,0
127146,81.1803,-861.825,0,0
128448,83.0358,-846.627,0,0
129749,86.1348,-832.24,0,0
131051,91.1554,-819.066,0,0
132353,95.4282,-808.23,0,0
133654,98.9533,-797.905,0,0
134956,101.308,-787.745,0,0
136258,104.638,-776.783,0,0
137559,109.304,-767.148,0,0
138860.775,111.948,-761.491,0,0
140162.4,111.041,-753.458,0,0
141464.025,110.768,-742.772,0,0
142765.65,111.844,-732.033,0,0
144067.275,112.368,-721.306,0,0
145368.9,114.608,-709.225,0,0
146670.525,117.913,-698.611,0,0
147972.15,121.227,-689.593,0,0
149273.775,122.625,-680.421,0,0
150575.4,123.873,-671.1,0,0
151877.025,123.1,-659.999,0,0
153178.65,123.581,-645.652,0,0
154480,125.841,-629.58,0,0
155782,133.889,-611.726,0,0
157084,145.645,-597.4,0,0
158385,157.82,-588.011,0,0
159687,168.968,-576.429,0,0
160988,185.788,-567.009,0,0
162290,201.995,-565.014,0,0
163592,216.554,-565.142,0,0
164893,228.556,-567.054,0,0
166195,243.051,-574.277,0,0
167497,248.195,-587.183,0,0
168798,246.402,-597.359,0,0
170100,238.913,-603.081,0,0
171401.375,232.668,-602.082,0,0
172703.0,226.548,-599.753,0,0
174004.625,222.343,-593.628,0,0
175306.25,222.822,-587.642,0,0
176607.875,221.853,-585.988,0,0
177909.5,218.848,-582.626,0,0
179211.125,216.898,-579.564,0,0
180512.75,211.207,-577.388,0,0
181814.375,203.405,-571.189,0,0
183116.0,194.156,-560.589,0,0
184417.625,189.258,-545.296,0,0
185719.25,187.865,-529.528,0,0
187021,189.154,-514.197,0,0
188322,191.455,-499.659,0,0
189624,194.385,-483.11,0,0
190926,200.576,-467.223,0,0
192227,207.679,-451.775,0,0
193529,214.882,-435.817,0,0
194831,224.893,-418.413,0,0
196132,238.262,-400.442,0,0
197434,255.125,-382.624,0,0
198735,274.436,-368.223,0,0
200037,294.805,-352.796,0,0
201339,320.661,-335.226,0,0
202640.35,355.141,-321.193,0,0
203941.975,397.358,-313.263,0,0
205243.6,449.197,-319.036,0,0
206545.225,495.699,-345.945,0,0
207846.85,527.141,-385.435,0,0
209148.475,542.078,-426.537,0,0
210450.1,539.918,-461.817,0,0
211751.725,530.334,-481.417,0,0
213053.35,531.083,-486.467,0,0
214354.975,541.983,-496.198,0,0
215656.6,553.044,-513.994,0,0
216958.225,557.003,-527.964,0,0
218259.85,571.298,-540.809,0,0
219561,586.334,-559.351,0,0
220863,603.836,-584.237,0,0
222165,619.746,-620.463,0,0
223466,626.665,-665.869,0,0
224768,619.913,-714.879,0,0
226070,601.414,-763.428,0,0
227371,569.479,-807.131,0,0
228673,526.552,-838.214,0,0
229974,481.473,-856.531,0,0
231276,437.684,-861.801,0,0
232578,401.718,-858.379,0,0
233879,372.229,-853.381,0,0
235180.95,346.781,-847.443,0,0
236482.575,322.921,-841.064,0,0
237784.2,302.689,-834.721,0,0
239085.825,280.748,-828.975,0,0
240387.45,259.102,-818.963,0,0
241689.075,241.097,-806.462,0,0
242990.7,226.465,-793.509,0,0
244292.325,214.353,-782.002,0,0
245593.95,202.282,-771.368,0,0
246895.575,190.621,-759.565,0,0
248197.2,180.672,-747.307,0,0
249498.825,171.981,-734.949,0,0
250800,164.592,-722.764,0,0
252102,158.117,-710.656,0,0
253404,152.384,-698.426,0,0
254705,147.786,-685.285,0,0
256007,145.519,-672.605,0,0
257309,144.172,-660.638,0,0
258610,144.266,-648.8,0,0
259912,146.196,-637.611,0,0
261213,149.99,-628.177,0,0
262515,154.313,-621.02,0,0
263817,159.274,-614.765,0,0
265118,165.778,-611.106,0,0
266420,172.156,-611.727,0,0
267721.55,175.692,-617.281,0,0
269023.175,171.172,-624.54,0,0
270324.8,160.859,-625.952,0,0
271626.425,151.275,-621.089,0,0
272928.05,145.01,-613.069,0,0
274229.675,141.893,-604.712,0,0
275531.3,140.86,-596.731,0,0
276832.925,141.206,-589.615,0,0
278134.55,143.301,-584.004,0,0
279436.175,145.848,-580.418,0,0
280737.8,147.18,-579.498,0,0
282039.425,146.106,-578.629,0,0
283341,143.88,-577.32,0,0
284643,140.975,-574.819,0,0
285944,137.066,-571.513,0,0
287246,133.032,-566.247,0,0
288548,130.7,-558.037,0,0
289849,132.962,-550.239,0,0
291151,135.758,-546.714,0,0
292452,136.223,-543.826,0,0
293754,135.713,-539.762,0,0
295056,135.462,-534.117,0,0
296357,137.9,-526.841,0,0
297659,143.061,-521.989,0,0
298960.525,148.059,-518.921,0,0
300262.15,153.74,-516.671,0,0
301563.775,159.558,-516.129,0,0
302865.4,165.536,-517.522,0,0
304167.025,170.363,-520.563,0,0
305468.65,173.429,-524.754,0,0
306770.275,176.119,-529.118,0,0
308071.9,177.854,-535.096,0,0
309373.525,177.033,-541.806,0,0
310675.15,174.727,-548.055,0,0
311976.775,170.827,-554.094,0,0
313278.4,164.638,-559.264,0,0
314580,157.636,-562.517,0,0
315882,150.433,-564.55,0,0
317183,142.48,-565.666,0,0
318485,134.267,-564.832,0,0
319787,126.947,-562.808,0,0
321088,119.475,-559.988,0,0
322390,112.488,-555.388,0,0
323691,107.249,-549.497,0,0
324993,104.153,-543.471,0,0
326295,102.492,-538.567,0,0
327596,101.326,-534.763,0,0
328898,100.205,-532.016,0,0
330200,98.486,-529.986,0,0
331501.125,96.4202,-528.163,0,0
332802.75,93.684,-526.759,0,0
334104.375,90.1834,-524.839,0,0
335406.0,86.4967,-522.25,0,0
336707.625,82.7366,-519.005,0,0
338009.25,79.3152,-515.538,0,0
339310.875,75.94,-511.639,0,0
340612.5,73.1396,-507.229,0,0
341914.125,70.9492,-503.007,0,0
343215.75,68.8368,-498.921,0,0
344517.375,66.6761,-494.967,0,0
345819.0,64.4905,-490.704,0,0
347121,62.6167,-486.134,0,0
348422,61.0904,-481.492,0,0
349724,60.0397,-476.796,0,0
351025,59.421,-472.266,0,0
352327,58.852,-468.123,0,0
353629,58.3066,-463.98,0,0
354930,57.8271,-459.758,0,0
356232,57.7751,-455.595,0,0
357534,57.9427,-451.685,0,0
358835,58.0204,-448.061,0,0
360137,58.1125,-444.339,0,0
361438,58.457,-440.69,0,0
362740.1,58.6985,-437.273,0,0
364041.725,58.9229,-433.826,0,0
365343.35,59.0825,-430.279,0,0
366644.975,59.578,-426.599,0,0
367946.6,60.0863,-422.841,0,0
369248.225,60.909,-418.535,0,0
370549.85,62.9089,-414.177,0,0
371851.475,65.7812,-410.621,0,0
373153.1,69.0433,-408.054,0,0
374454.725,72.2914,-406.568,0,0
375756.35,74.8273,-405.925,0,0
377057.975,76.9067,-405.288,0,0
378359.6,78.8838,-405.026,0,0
379661,80.5285,-405.079,0,0
380963,82.0753,-405.302,0,0
382264,83.7341,-406.474,0,0
383566,83.9841,-408.734,0,0
384868,82.6019,-410.705,0,0
386169,80.2059,-411.691,0,0
387471,77.2556,-411.717,0,0
388773,74.2941,-410.387,0,0
390074,72.2704,-408.308,0,0
391376,70.9836,-406.657,0,0
392677,69.398,-405.492,0,0
393979,67.094,-404.109,0,0
395280.7,64.4303,-401.807,0,0
396582.325,62.1969,-398.775,0,0
397883.95,60.5324,-395.302,0,0
399185.575,59.3171,-391.705,0,0
400006.6,58.7754,-389.405,0,0

File: sample_2.csv
Frequency (Hz),Impedance (ohms),Phase (Radians),Temperature (C),Humidity (%)
10000.0,225.321,-11388.3,0,0
11301.625,200.679,-10086.6,0,0
12603.25,181.032,-9054.62,0,0
13904.875,183.651,-8216.63,0,0
15206.5,161.871,-7524.43,0,0
16508.125,141.728,-6931.85,0,0
17809.75,131.67,-6425.81,0,0
19111.375,128.225,-5988.37,0,0
20413.0,117.324,-5606.34,0,0
21714.625,127.074,-5277.11,0,0
23016.25,111.277,-4983.51,0,0
24317.875,102.308,-4718.7,0,0
25619.5,96.4059,-4475.74,0,0
26921.1,94.4992,-4257.61,0,0
28222.7,89.6894,-4059.45,0,0
29524.4,93.6893,-3876.66,0,0
30826,87.7457,-3722.72,0,0
32127.6,81.6777,-3569.61,0,0
33429.2,79.5202,-3431.27,0,0
34730.9,75.5247,-3301.35,0,0
36032.5,72.8919,-3180.5,0,0
37334.1,70.8464,-3067.53,0,0
38635.7,68.7598,-2962.51,0,0
39937.4,66.9747,-2864.14,0,0
41239,65.4674,-2771.79,0,0
42540.6,64.3428,-2685.33,0,0
43842.225,63.1295,-2603.72,0,0
45143.85,61.7506,-2526.57,0,0
46445.475,61.1142,-2454.24,0,0
47747.1,60.7273,-2385.2,0,0
49048.725,60.3968,-2321.46,0,0
50350.35,57.8076,-2259.47,0,0
51651.975,56.7139,-2200.87,0,0
52953.6,55.01,-2143.68,0,0
54255.225,54.2593,-2089.26,0,0
55556.85,53.9206,-2037.4,0,0
56858.475,53.8089,-1987.72,0,0
58160.1,54.0796,-1940.72,0,0
59461.7,54.5608,-1895,0,0
60763.3,55.943,-1852.45,0,0
62065,58.8913,-1814.57,0,0
63366.6,56.1901,-1777.55,0,0
64668.2,52.9611,-1739.85,0,0
65969.8,50.7527,-1700.99,0,0
67271.5,51.2019,-1663.64,0,0
68573.1,53.5318,-1629.93,0,0
69874.7,55.907,-1599.49,0,0
71176.3,52.9801,-1571.42,0,0
72478,47.6895,-1541.21,0,0
73779.6,45.2408,-1508.35,0,0
75081.2,45.2101,-1476.32,0,0
76382.825,46.9392,-1446.19,0,0
77684.45,49.5781,-1417.93,0,0
78986.075,53.0129,-1393.56,0,0
80287.7,51.983,-1372.27,0,0
81589.325,49.3061,-1347.46,0,0
82890.95,47.9202,-1321.93,0,0
84192.575,48.8131,-1297.07,0,0
85494.2,49.5336,-1273.76,0,0
86795.825,50.143,-1251.66,0,0
88097.45,50.6702,-1230.45,0,0
89399.075,50.9711,-1208.85,0,0
90700.7,51.3002,-1188.78,0,0
92002.3,52.801,-1167.62,0,0
93303.9,55.7231,-1149.29,0,0
94605.6,55.2141,-1133.04,0,0
95907.2,54.4896,-1113.01,0,0
97208.8,57.1717,-1096.29,0,0
98510.4,57.5731,-1082.25,0,0
99812.1,53.1591,-1068.2,0,0
101114,50.084,-1050.11,0,0
102415,47.4105,-1030.21,0,0
103717,46.0809,-1009.42,0,0
105019,49.3205,-989.238,0,0
106320.175,54.2791,-972.16,0,0
107621.8,57.4992,-960.224,0,0
108923.425,56.3203,-948.492,0,0
110225.05,52.7863,-933.239,0,0
111526.675,51.5034,-915.96,0,0
112828.3,51.7131,-898.543,0,0
114129.925,53.3533,-881.308,0,0
115431.55,55.6748,-865.044,0,0
116733.175,58.6557,-849.265,0,0
118034.8,62.4614,-834.932,0,0
119336.425,66.333,-821.764,0,0
120638.05,69.537,-811.57,0,0
121939.675,69.0457,-800.347,0,0
123241,68.9047,-787.439,0,0
124543,68.9222,-774.396,0,0
125845,68.7716,-760.267,0,0
127146,69.7248,-745.083,0,0
128448,72.6837,-730.164,0,0
129749,76.2601,-716.732,0,0
131051,79.6927,-704.616,0,0
132353,81.8462,-693.248,0,0
133654,82.8215,-680.991,0,0
134956,83.8361,-667.765,0,0
136258,85.0114,-653.679,0,0
137559,87.3529,-638.94,0,0
138860.775,89.599,-624.162,0,0
140162.4,91.9107,-607.741,0,0
141464.025,96.7479,-589.281,0,0
142765.65,105.283,-571.793,0,0
144067.275,114.357,-556.304,0,0
145368.9,124.363,-540.731,0,0
146670.525,135.31,-525.144,0,0
147972.15,149.745,-508.755,0,0
149273.775,169.463,-492.8,0,0
150575.4,196.844,-485.545,0,0
151877.025,222.652,-491.293,0,0
153178.65,237.286,-505.753,0,0
154480,240.402,-517.354,0,0
155782,239.704,-523.529,0,0
157084,237.108,-526.413,0,0
158385,233.004,-526.605,0,0
159687,228.209,-520.573,0,0
160988,229.875,-512.488,0,0
162290,238.911,-509.727,0,0
163592,236.954,-520.138,0,0
164893,222.459,-520.048,0,0
166195,206.271,-508.544,0,0
167497,198.159,-489.868,0,0
168798,192.914,-468.388,0,0
170100,194.998,-446.727,0,0
171401.375,197.27,-424.784,0,0
172703.0,204.725,-400.996,0,0
174004.625,216.715,-377.921,0,0
175306.25,233.571,-354.732,0,0
176607.875,254.325,-335.749,0,0
177909.5,282.805,-324.078,0,0
179211.125,303.293,-320.432,0,0
180512.75,316.026,-321.553,0,0
181814.375,319.657,-308.331,0,0
183116.0,333.042,-285.125,0,0
184417.625,356.244,-261.812,0,0
185719.25,390.927,-240.982,0,0
187021,428.059,-232.191,0,0
188322,467.931,-223.011,0,0
189624,507.247,-218.454,0,0
190926,550.954,-211.921,0,0
192227,610.933,-211.951,0,0
193529,679.866,-229.476,0,0
194831,742.345,-269.691,0,0
196132,796.406,-323.635,0,0
197434,840.384,-387.039,0,0
198735,871.465,-460.391,0,0
200037,883.053,-545.621,0,0
201339,878.009,-628.589,0,0
202640.35,848.625,-711.388,0,0
203941.975,796.651,-771.382,0,0
205243.6,750.076,-811.542,0,0
206545.225,696.909,-845.312,0,0
207846.85,647.376,-861.902,0,0
209148.475,608.196,-872.056,0,0
210450.1,568.516,-887.557,0,0
211751.725,520.023,-894.342,0,0
213053.35,477.842,-884.713,0,0
214354.975,444.34,-871.814,0,0
215656.6,417.761,-857.734,0,0
216958.225,396.09,-841.75,0,0
218259.85,380.554,-825.778,0,0
219561,369.74,-812.125,0,0
220863,361.135,-800.85,0,0
222165,355.257,-789.954,0,0
223466,353.152,-783.192,0,0
224768,349.81,-780.12,0,0
226070,346.153,-777.394,0,0
227371,344.175,-777.413,0,0
228673,341.969,-780.502,0,0
229974,336.425,-788.663,0,0
231276,324.629,-796.684,0,0
232578,309.267,-801.087,0,0
233879,293.295,-802.628,0,0
235180.95,277.274,-802.557,0,0
236482.575,259.974,-800.043,0,0
237784.2,243.34,-795.126,0,0
239085.825,227.888,-787.727,0,0
240387.45,213.705,-778.664,0,0
241689.075,202.132,-768.072,0,0
242990.7,193.149,-758.002,0,0
244292.325,186.116,-749.622,0,0
245593.95,178.527,-743.597,0,0
246895.575,167.744,-739.356,0,0
248197.2,153.554,-730.455,0,0
249498.825,140.84,-717.705,0,0
250800,130.913,-701.93,0,0
252102,124.541,-685.27,0,0
253404,121.119,-668.705,0,0
254705,119.877,-652.888,0,0
256007,120.701,-637.52,0,0
257309,123.84,-622.933,0,0
258610,129.324,-610.301,0,0
259912,135.909,-599.435,0,0
261213,143.909,-590.768,0,0
262515,152.525,-584.895,0,0
263817,160.745,-581.241,0,0
265118,168.334,-580.864,0,0
266420,172.589,-581.914,0,0
267721.55,175.854,-582.148,0,0
269023.175,177.344,-583.66,0,0
270324.8,175.911,-582.004,0,0
271626.425,177.615,-577.064,0,0
272928.05,182.644,-572.691,0,0
274229.675,192.128,-569.339,0,0
275531.3,205.933,-574.48,0,0
276832.925,214.256,-589.652,0,0
278134.55,211.117,-607.047,0,0
279436.175,201.331,-618.584,0,0
280737.8,190.071,-625.91,0,0
282039.425,177.302,-630.776,0,0
283341,161.835,-631.675,0,0
284643,149.596,-626.447,0,0
285944,137.595,-622.668,0,0
287246,124.026,-613.572,0,0
288548,114.444,-596.969,0,0
289849,115.336,-577.391,0,0
291151,127.152,-564.063,0,0
292452,140.728,-562.23,0,0
293754,148.634,-569.89,0,0
295056,145.663,-574.423,0,0
296357,149.632,-574.86,0,0
297659,149.63,-586.14,0,0
298960.525,139.913,-592.327,0,0
300262.15,130.55,-593.581,0,0
301563.775,121.739,-591.114,0,0
302865.4,117.119,-587.561,0,0
304167.025,112.851,-587.63,0,0
305468.65,105.545,-587.666,0,0
306770.275,96.7423,-585.146,0,0
308071.9,88.9039,-580.183,0,0
309373.525,82.3657,-574.427,0,0
310675.15,76.7975,-568.081,0,0
311976.775,72.2199,-561.325,0,0
313278.4,68.7676,-554.713,0,0
314580,65.7885,-548.339,0,0
315882,63.1017,-542.164,0,0
317183,60.8095,-535.61,0,0
318485,59.5519,-529.328,0,0
319787,58.4708,-523.586,0,0
321088,57.4314,-517.987,0,0
322390,56.5423,-512.379,0,0
323691,55.6898,-506.58,0,0
324993,55.7389,-499.921,0,0
326295,57.7394,-493.534,0,0
327596,60.9613,-489.458,0,0
328898,63.1098,-486.964,0,0
330200,64.9098,-485.074,0,0
331501.125,65.9533,-484.22,0,0
332802.75,65.5304,-484.014,0,0
334104.375,63.3964,-482.87,0,0
335406.0,60.9762,-480.511,0,0
336707.625,58.8486,-477.259,0,0
338009.25,57.0242,-473.461,0,0
339310.875,55.8022,-469.443,0,0
340612.5,54.7961,-465.349,0,0
341914.125,54.0546,-461.127,0,0
343215.75,53.7199,-456.662,0,0
344517.375,53.9113,-452.255,0,0
345819.0,54.5768,-447.926,0,0
347121,55.7376,-443.991,0,0
348422,57.0729,-440.39,0,0
349724,58.7689,-437.053,0,0
351025,60.6653,-434.541,0,0
352327,62.0222,-432.546,0,0
353629,63.1712,-430.444,0,0
354930,64.4821,-428.337,0,0
356232,65.7029,-426.513,0,0
357534,67.189,-424.711,0,0
358835,68.9296,-423.34,0,0
360137,70.7794,-423.022,0,0
361438,71.4657,-423.31,0,0
362740.1,71.4144,-423.437,0,0
364041.725,70.9923,-423.274,0,0
365343.35,70.185,-422.861,0,0
366644.975,69.2319,-421.857,0,0
367946.6,68.7427,-420.538,0,0
369248.225,68.6619,-419.582,0,0
370549.85,68.2442,-419.387,0,0
371851.475,66.9526,-418.809,0,0
373153.1,65.8049,-417.911,0,0
374454.725,64.6079,-417.152,0,0
375756.35,62.931,-416.317,0,0
377057.975,61.1758,-414.976,0,0
378359.6,59.6668,-413.973,0,0
379661,56.7779,-412.796,0,0
380963,54.2284,-409.3,0,0
382264,53.9531,-406.583,0,0
383566,52.8276,-405.141,0,0
384868,50.8321,-403.191,0,0
386169,48.8973,-400.539,0,0
387471,47.1044,-397.417,0,0
388773,45.8839,-393.787,0,0
390074,45.5965,-390.171,0,0
391376,45.8273,-387.482,0,0
392677,45.2373,-385.786,0,0
393979,43.6111,-383.453,0,0
395280.7,41.963,-379.878,0,0
396582.325,41.2169,-375.804,0,0
397883.95,41.2041,-371.811,0,0
399185.575,41.6742,-368.053,0,0
400006.6,42.132,-365.905,0,0