Folder: ML_Dmg_Mehdi_Dataset/Accelerated corrosion test data/2025-10-14_06-00-04 (part 2)

File: sample_3.csv
Frequency (Hz),Impedance (ohms),Phase (Radians),Temperature (C),Humidity (%)
10000.0,249.996,-11795.7,0,0
11301.625,222.606,-10448.7,0,0
12603.25,201.661,-9376.95,0,0
13904.875,184.643,-8503.96,0,0
15206.5,172.241,-7772.82,0,0
16508.125,160.758,-7178.05,0,0
17809.75,156.423,-6649.12,0,0
19111.375,145.937,-6198.25,0,0
20413.0,159.627,-5798.98,0,0
21714.625,138.379,-5475.26,0,0
23016.25,127.499,-5170.2,0,0
24317.875,118.845,-4890.83,0,0
25619.5,112.974,-4643.34,0,0
26921.1,108.081,-4412.59,0,0
28222.7,103.349,-4205.81,0,0
29524.4,108.163,-4029.54,0,0
30826,100.727,-3857.28,0,0
32127.6,101.087,-3692.36,0,0
33429.2,98.9859,-3568.34,0,0
34730.9,87.24,-3430.09,0,0
36032.5,82.9807,-3302.12,0,0
37334.1,80.0723,-3184.21,0,0
38635.7,77.628,-3074.4,0,0
39937.4,75.293,-2971.82,0,0
41239,74.0903,-2874.6,0,0
42540.6,72.7899,-2785.06,0,0
43842.225,71.4328,-2699.7,0,0
45143.85,70.6537,-2619.81,0,0
46445.475,69.3482,-2544.09,0,0
47747.1,69.9384,-2471.34,0,0
49048.725,68.1518,-2406.02,0,0
50350.35,66.3891,-2340.88,0,0
51651.975,65.8098,-2278.12,0,0
52953.6,66.0994,-2218.38,0,0
54255.225,68.9255,-2163.38,0,0
55556.85,66.3048,-2115.99,0,0
56858.475,61.4502,-2063.08,0,0
58160.1,60.9059,-2011.18,0,0
59461.7,61.3912,-1961.87,0,0
60763.3,62.5857,-1915.31,0,0
62065,64.6994,-1870.46,0,0
63366.6,68.3904,-1826.92,0,0
64668.2,77.3315,-1785.21,0,0
65969.8,91.6874,-1760.09,0,0
67271.5,75.4069,-1734.52,0,0
68573.1,75.8345,-1696.7,0,0
69874.7,75.5907,-1667.53,0,0
71176.3,70.4624,-1636.96,0,0
72478,69.2165,-1604.21,0,0
73779.6,67.6852,-1576.06,0,0
75081.2,64.0719,-1547.87,0,0
76382.825,60.4737,-1518.73,0,0
77684.45,57.939,-1489.8,0,0
78986.075,55.7314,-1461.31,0,0
80287.7,54.2042,-1433.27,0,0
81589.325,53.188,-1406.06,0,0
82890.95,52.5733,-1379.61,0,0
84192.575,52.3223,-1353.96,0,0
85494.2,52.1872,-1328.93,0,0
86795.825,52.3915,-1304.65,0,0
88097.45,52.9711,-1280.86,0,0
89399.075,54.2354,-1256.99,0,0
90700.7,56.4351,-1235.33,0,0
92002.3,58.7093,-1214.7,0,0
93303.9,61.5867,-1195.79,0,0
94605.6,62.4457,-1181.23,0,0
95907.2,57.3245,-1163.44,0,0
97208.8,56.0292,-1142.22,0,0
98510.4,55.813,-1122.58,0,0
99812.1,55.2749,-1103.57,0,0
101114,54.9067,-1083.85,0,0
102415,56.297,-1063.38,0,0
103717,60.0996,-1045.8,0,0
105019,63.3936,-1031.63,0,0
106320.175,62.7902,-1017.85,0,0
107621.8,60.5985,-1002.18,0,0
108923.425,58.7567,-984.821,0,0
110225.05,58.8274,-966.356,0,0
111526.675,61.1213,-948.359,0,0
112828.3,63.2421,-932.493,0,0
114129.925,64.7176,-916.618,0,0
115431.55,66.8251,-899.763,0,0
116733.175,70.4764,-883.16,0,0
118034.8,76.3054,-867.246,0,0
119336.425,82.9906,-855.172,0,0
120638.05,89.0079,-849.021,0,0
121939.675,86.0473,-840.686,0,0
123241,86.557,-827.263,0,0
124543,88.1292,-815.894,0,0
125845,89.5176,-805.504,0,0
127146,88.9808,-795.822,0,0
128448,87.449,-785.093,0,0
129749,85.9627,-772.117,0,0
131051,87.0666,-759.361,0,0
132353,86.3366,-748.419,0,0
133654,85.6978,-736.566,0,0
134956,84.0762,-724.085,0,0
136258,82.6398,-710.705,0,0
137559,82.393,-695.533,0,0
138860.775,83.6653,-681.969,0,0
140162.4,82.935,-668.524,0,0
141464.025,82.5501,-654.453,0,0
142765.65,81.757,-638.532,0,0
144067.275,82.0508,-621.356,0,0
145368.9,83.766,-603.308,0,0
146670.525,86.3383,-584.622,0,0
147972.15,90.7224,-564.743,0,0
149273.775,97.1902,-544.501,0,0
150575.4,107.58,-524.397,0,0
151877.025,120.168,-507.537,0,0
153178.65,132.779,-493.939,0,0
154480,142.705,-482.033,0,0
155782,151.024,-465.734,0,0
157084,162.873,-448.258,0,0
158385,179.241,-437.433,0,0
159687,183.736,-422.908,0,0
160988,199.077,-395.574,0,0
162290,224.33,-369.839,0,0
163592,260.172,-348.363,0,0
164893,308.094,-337.185,0,0
166195,359.872,-349.773,0,0
167497,398.889,-381.215,0,0
168798,420.273,-417.612,0,0
170100,419.899,-458.891,0,0
171401.375,405.446,-474.701,0,0
172703.0,401.372,-477.438,0,0
174004.625,409.563,-487.045,0,0
175306.25,411.641,-503.985,0,0
176607.875,409.033,-522.556,0,0
177909.5,387.396,-540.627,0,0
179211.125,363.945,-532.503,0,0
180512.75,359.283,-519.388,0,0
181814.375,364.227,-515.834,0,0
183116.0,357.085,-521.962,0,0
184417.625,342.788,-519.706,0,0
185719.25,328.286,-507.07,0,0
187021,323.262,-484.178,0,0
188322,329.87,-465.731,0,0
189624,334.653,-451.494,0,0
190926,344.247,-437.015,0,0
192227,353.372,-423.691,0,0
193529,364.192,-405.25,0,0
194831,387.316,-387.935,0,0
196132,419.705,-382.168,0,0
197434,442.925,-393.818,0,0
198735,456.53,-400.36,0,0
200037,466.558,-406.008,0,0
201339,471.943,-400.223,0,0
202640.35,491.938,-390.819,0,0
203941.975,521.877,-390.6,0,0
205243.6,550.44,-404.568,0,0
206545.225,561.84,-420.223,0,0
207846.85,581.578,-420.004,0,0
209148.475,613.456,-428.957,0,0
210450.1,645.97,-451.186,0,0
211751.725,672.515,-483.389,0,0
213053.35,693.155,-518.492,0,0
214354.975,707.28,-560.779,0,0
215656.6,713.503,-606.309,0,0
216958.225,710.655,-652.157,0,0
218259.85,697.516,-695.834,0,0
219561,677.501,-732.16,0,0
220863,658.554,-768.757,0,0
222165,629.209,-806.349,0,0
223466,584.412,-832.18,0,0
224768,542.927,-834.251,0,0
226070,521.755,-832.106,0,0
227371,504.342,-841.088,0,0
228673,478.955,-852.851,0,0
229974,451.9,-858.666,0,0
231276,423.901,-861.31,0,0
232578,397.725,-859.996,0,0
233879,373.404,-856.673,0,0
235180.95,350.796,-852.105,0,0
236482.575,326.609,-847.509,0,0
237784.2,302.355,-839.242,0,0
239085.825,278.6,-824.971,0,0
240387.45,261.474,-807.8,0,0
241689.075,247.07,-790.279,0,0
242990.7,238.251,-772,0,0
244292.325,233.695,-757.362,0,0
245593.95,228.33,-745.933,0,0
246895.575,222.903,-733.801,0,0
248197.2,218.908,-721.862,0,0
249498.825,218.561,-711.112,0,0
250800,216.72,-705.635,0,0
252102,210.195,-699.519,0,0
253404,202.173,-688.675,0,0
254705,197.513,-673.989,0,0
256007,198.04,-657.238,0,0
257309,205.532,-643.818,0,0
258610,212.826,-635.083,0,0
259912,224.544,-626.479,0,0
261213,240.38,-627.286,0,0
262515,250.616,-639.824,0,0
263817,248.757,-654.289,0,0
265118,238.468,-664.767,0,0
266420,224.07,-668.082,0,0
267721.55,210.044,-663.519,0,0
269023.175,201.057,-654.608,0,0
270324.8,195.44,-645.312,0,0
271626.425,193.864,-635.675,0,0
272928.05,193.716,-629.268,0,0
274229.675,192.983,-621.272,0,0
275531.3,196.682,-613.331,0,0
276832.925,203.979,-608.886,0,0
278134.55,211.535,-610.838,0,0
279436.175,215.163,-617.314,0,0
280737.8,213.117,-625.341,0,0
282039.425,206.454,-630.825,0,0
283341,197.814,-632.82,0,0
284643,188.559,-631.432,0,0
285944,180.457,-627.071,0,0
287246,174.845,-620.333,0,0
288548,173.165,-613.873,0,0
289849,172.488,-610.004,0,0
291151,171.326,-607.687,0,0
292452,168.248,-604.98,0,0
293754,166.509,-599.771,0,0
295056,168.182,-595.78,0,0
296357,170.733,-595.522,0,0
297659,170.993,-598.231,0,0
298960.525,167.902,-601.201,0,0
300262.15,162.909,-603.018,0,0
301563.775,156.567,-603.396,0,0
302865.4,149.704,-601.628,0,0
304167.025,143.549,-598.462,0,0
305468.65,138.067,-593.986,0,0
306770.275,134.19,-588.835,0,0
308071.9,131.849,-584.172,0,0
309373.525,129.871,-580.925,0,0
310675.15,127.144,-578.372,0,0
311976.775,123.228,-575.707,0,0
313278.4,118.646,-571.47,0,0
314580,115.005,-565.48,0,0
315882,113.642,-558.684,0,0
317183,114.291,-553.531,0,0
318485,114.998,-550.14,0,0
319787,114.926,-547.229,0,0
321088,115.036,-544.297,0,0
322390,116.2,-542.189,0,0
323691,116.785,-542.174,0,0
324993,115.555,-543.268,0,0
326295,112.293,-543.852,0,0
327596,107.88,-543.143,0,0
328898,103.484,-541.282,0,0
330200,99.3197,-538.723,0,0
331501.125,95.1271,-535.743,0,0
332802.75,90.7848,-532.233,0,0
334104.375,86.5024,-527.745,0,0
335406.0,82.7297,-522.296,0,0
336707.625,79.9848,-516.31,0,0
338009.25,77.9472,-510.229,0,0
339310.875,76.5847,-503.687,0,0
340612.5,76.7042,-496.907,0,0
341914.125,78.563,-491.048,0,0
343215.75,81.2728,-487.14,0,0
344517.375,83.1562,-485.229,0,0
345819.0,83.3234,-483.485,0,0
347121,83.0681,-481.316,0,0
348422,82.3731,-478.783,0,0
349724,81.8537,-475.302,0,0
351025,82.7407,-471.592,0,0
352327,84.5359,-469.828,0,0
353629,84.7094,-469.433,0,0
354930,83.3123,-468.545,0,0
356232,81.6421,-466.588,0,0
357534,79.9072,-463.9,0,0
358835,78.7484,-460.288,0,0
360137,78.6534,-456.945,0,0
361438,78.5704,-454.193,0,0
362740.1,78.2756,-451.28,0,0
364041.725,78.8486,-447.894,0,0
365343.35,80.4141,-445.944,0,0
366644.975,80.8403,-445.632,0,0
367946.6,79.2487,-445.002,0,0
369248.225,76.8049,-442.529,0,0
370549.85,76.2451,-438.138,0,0
371851.475,77.9282,-435.481,0,0
373153.1,78.246,-435.112,0,0
374454.725,76.4509,-433.954,0,0
375756.35,74.645,-431.232,0,0
377057.975,73.824,-427.45,0,0
378359.6,74.2181,-424.106,0,0
379661,75.2222,-421.394,0,0
380963,75.9572,-419.959,0,0
382264,75.959,-418.41,0,0
383566,75.8492,-416.969,0,0
384868,75.028,-415.731,0,0
386169,73.7599,-413.778,0,0
387471,72.4861,-411.252,0,0
388773,71.2689,-408.047,0,0
390074,70.7959,-404.02,0,0
391376,71.5015,-399.892,0,0
392677,73.472,-396.277,0,0
393979,75.8996,-393.995,0,0
395280.7,78.17,-392.759,0,0
396582.325,80.0112,-392.284,0,0
397883.95,81.0523,-392.597,0,0
399185.575,81.0366,-393.067,0,0
400006.6,80.5409,-393.173,0,0

File: sample_4.csv
Frequency (Hz),Impedance (ohms),Phase (Radians),Temperature (C),Humidity (%)
10000.0,262.107,-11872.1,0,0
11301.625,232.874,-10517.5,0,0
12603.25,212.206,-9435.59,0,0
13904.875,191.795,-8555.25,0,0
15206.5,180.316,-7830.2,0,0
16508.125,187.255,-7216.12,0,0
17809.75,155.228,-6709.06,0,0
19111.375,144.373,-6251.7,0,0
20413.0,139.782,-5851.3,0,0
21714.625,144.973,-5506.94,0,0
23016.25,124.241,-5206.72,0,0
24317.875,115.148,-4921.88,0,0
25619.5,112.093,-4669.02,0,0
26921.1,106.23,-4439.39,0,0
28222.7,121.118,-4237.09,0,0
29524.4,112.495,-4057.17,0,0
30826,98.3014,-3884.91,0,0
32127.6,99.2662,-3724.99,0,0
33429.2,89.4466,-3584.33,0,0
34730.9,84.5676,-3445.61,0,0
36032.5,81.0258,-3318.21,0,0
37334.1,79.2437,-3199.2,0,0
38635.7,76.6245,-3087.71,0,0
39937.4,76.7174,-2981.8,0,0
41239,79.9232,-2887.75,0,0
42540.6,78.5352,-2799.35,0,0
43842.225,73.4621,-2715.91,0,0
45143.85,70.8709,-2635.29,0,0
46445.475,69.9473,-2557.75,0,0
47747.1,69.5811,-2488.12,0,0
49048.725,65.6704,-2419.08,0,0
50350.35,64.1227,-2351.63,0,0
51651.975,63.5865,-2286.84,0,0
52953.6,65.248,-2224.02,0,0
54255.225,73.427,-2167.55,0,0
55556.85,71.3908,-2124.76,0,0
56858.475,65.3198,-2070.67,0,0
58160.1,66.0918,-2018.23,0,0
59461.7,70.3992,-1967.98,0,0
60763.3,79.9042,-1929.48,0,0
62065,69.5929,-1896.67,0,0
63366.6,63.925,-1851.35,0,0
64668.2,64.3714,-1807.86,0,0
65969.8,66.2633,-1767.13,0,0
67271.5,70.1611,-1731.28,0,0
68573.1,73.6078,-1702.29,0,0
69874.7,66.0988,-1672.3,0,0
71176.3,64.5443,-1638.11,0,0
72478,58.948,-1606.68,0,0
73779.6,57.475,-1570.28,0,0
75081.2,59.6078,-1537.41,0,0
76382.825,61.9839,-1508.62,0,0
77684.45,64.9194,-1480.88,0,0
78986.075,63.5968,-1458.44,0,0
80287.7,60.7107,-1431.57,0,0
81589.325,60.106,-1405.58,0,0
82890.95,58.8798,-1380.57,0,0
84192.575,57.6538,-1355.71,0,0
85494.2,56.9015,-1331.48,0,0
86795.825,56.113,-1307.89,0,0
88097.45,54.7756,-1285.25,0,0
89399.075,53.2216,-1261.11,0,0
90700.7,53.1661,-1237.96,0,0
92002.3,53.4592,-1214.79,0,0
93303.9,54.739,-1193.96,0,0
94605.6,53.3791,-1173.69,0,0
95907.2,52.7664,-1151.19,0,0
97208.8,53.5984,-1129.54,0,0
98510.4,54.9083,-1108.06,0,0
99812.1,57.4758,-1087.28,0,0
101114,61.7128,-1068.83,0,0
102415,60.9514,-1054.37,0,0
103717,58.1129,-1031.66,0,0
105019,61.8007,-1008.13,0,0
106320.175,68.3743,-987.632,0,0
107621.8,75.1702,-969.765,0,0
108923.425,83.52,-953.147,0,0
110225.05,91.7669,-940.536,0,0
111526.675,97.9245,-929.8,0,0
112828.3,102.884,-920.06,0,0
114129.925,106.22,-911.423,0,0
115431.55,108.148,-903.204,0,0
116733.175,107.671,-894.86,0,0
118034.8,105.543,-884.109,0,0
119336.425,106.342,-870.091,0,0
120638.05,111.771,-864.937,0,0
121939.675,104.638,-858.747,0,0
123241,99.8728,-846.333,0,0
124543,96.7616,-833.639,0,0
125845,94.9366,-821.397,0,0
127146,91.5027,-810.432,0,0
128448,86.7789,-798.856,0,0
129749,80.0309,-784.27,0,0
131051,75.2341,-766.416,0,0
132353,72.6598,-747.734,0,0
133654,71.9275,-728.881,0,0
134956,72.5717,-710.039,0,0
136258,74.6009,-691.639,0,0
137559,77.2094,-674.385,0,0
138860.775,79.148,-656.432,0,0
140162.4,82.4561,-637.515,0,0
141464.025,87.4451,-618.582,0,0
142765.65,93.354,-600.267,0,0
144067.275,100.064,-581.957,0,0
145368.9,107.678,-563.378,0,0
146670.525,117.22,-544.759,0,0
147972.15,127.976,-526.817,0,0
149273.775,140.378,-508.94,0,0
150575.4,155.01,-490.771,0,0
151877.025,173.76,-474.448,0,0
153178.65,195.969,-462.32,0,0
154480,217.579,-457.247,0,0
155782,234.656,-453.312,0,0
157084,249.644,-451.178,0,0
158385,264.866,-445.585,0,0
159687,285.626,-443.437,0,0
160988,302.808,-450.909,0,0
162290,309.88,-456.381,0,0
163592,314.774,-456.461,0,0
164893,323.108,-450.25,0,0
166195,338.42,-442.417,0,0
167497,365.374,-441.594,0,0
168798,391.734,-457.12,0,0
170100,409.83,-485.514,0,0
171401.375,406.554,-523.553,0,0
172703.0,382.39,-549.976,0,0
174004.625,349.284,-555.94,0,0
175306.25,321.265,-545.257,0,0
176607.875,303.029,-523.419,0,0
177909.5,296.495,-499.942,0,0
179211.125,295.777,-478.782,0,0
180512.75,299.524,-460.053,0,0
181814.375,303.57,-443.616,0,0
183116.0,306.646,-426.541,0,0
184417.625,310.924,-405.812,0,0
185719.25,319.176,-382.293,0,0
187021,331.61,-357.166,0,0
188322,349.419,-330.243,0,0
189624,374.242,-302.59,0,0
190926,407.801,-276.315,0,0
192227,450.259,-254.17,0,0
193529,500.537,-239.841,0,0
194831,555.897,-234.588,0,0
196132,615.036,-237.124,0,0
197434,681.79,-249.683,0,0
198735,754.457,-280.495,0,0
200037,825.228,-338.245,0,0
201339,874.685,-420.765,0,0
202640.35,893.681,-510.529,0,0
203941.975,893.094,-594.398,0,0
205243.6,872.348,-671.415,0,0
206545.225,842.479,-736.115,0,0
207846.85,802.129,-800.128,0,0
209148.475,742.693,-844.853,0,0
210450.1,684.318,-865.855,0,0
211751.725,633.884,-871.642,0,0
213053.35,595.145,-869.618,0,0
214354.975,566.208,-862.3,0,0
215656.6,550.443,-862.338,0,0
216958.225,529.581,-869.462,0,0
218259.85,508.017,-873.655,0,0
219561,487.502,-878.182,0,0
220863,464.486,-883.271,0,0
222165,440.873,-885.079,0,0
223466,418.38,-885.247,0,0
224768,396.813,-886.128,0,0
226070,371.396,-887.066,0,0
227371,343.523,-883.235,0,0
228673,315.292,-873.528,0,0
229974,291.535,-857.699,0,0
231276,273.054,-840.054,0,0
232578,258.701,-822.279,0,0
233879,247.837,-805.116,0,0
235180.95,239.88,-789.037,0,0
236482.575,233.043,-774.542,0,0
237784.2,227.991,-759.642,0,0
239085.825,226.311,-746.736,0,0
240387.45,225.139,-736.901,0,0
241689.075,223.524,-729.279,0,0
242990.7,220.459,-723.074,0,0
244292.325,215.609,-717.141,0,0
245593.95,209.126,-709.346,0,0
246895.575,203.712,-699.497,0,0
248197.2,200.763,-689.364,0,0
249498.825,198.311,-680.207,0,0
250800,196.448,-672.094,0,0
252102,192.452,-665.155,0,0
253404,186.485,-654.745,0,0
254705,182.544,-641.576,0,0
256007,180.438,-625.139,0,0
257309,183.655,-606.894,0,0
258610,192.452,-589.095,0,0
259912,207.649,-574.787,0,0
261213,225.941,-565.368,0,0
262515,246.14,-562.552,0,0
263817,267.825,-566.605,0,0
265118,285.177,-578.996,0,0
266420,297.973,-595.131,0,0
267721.55,304.872,-615.979,0,0
269023.175,301.818,-640.301,0,0
270324.8,286.898,-655.482,0,0
271626.425,276.237,-663.042,0,0
272928.05,266.389,-671.326,0,0
274229.675,254.151,-680.206,0,0
275531.3,235.997,-686.784,0,0
276832.925,215.432,-686.038,0,0
278134.55,195.868,-676.259,0,0
279436.175,185.675,-660.111,0,0
280737.8,184.422,-648.801,0,0
282039.425,181.965,-641.74,0,0
283341,182.133,-634.367,0,0
284643,181.581,-632.33,0,0
285944,177.518,-630.762,0,0
287246,170.789,-625.466,0,0
288548,165.306,-615.816,0,0
289849,166.908,-602.2,0,0
291151,176.509,-593.529,0,0
292452,188.508,-593.096,0,0
293754,197.334,-601.336,0,0
295056,198.323,-613.888,0,0
296357,190.409,-624.685,0,0
297659,178.897,-628.533,0,0
298960.525,169.122,-628.104,0,0
300262.15,160.624,-626.787,0,0
301563.775,152.095,-624.068,0,0
302865.4,144.686,-620.033,0,0
304167.025,137.789,-615.012,0,0
305468.65,132.396,-609.076,0,0
306770.275,128.409,-602.98,0,0
308071.9,126.078,-597.529,0,0
309373.525,124.257,-593.579,0,0
310675.15,121.222,-590.558,0,0
311976.775,117.676,-586.475,0,0
313278.4,114.829,-581.829,0,0
314580,113.007,-577.295,0,0
315882,111.693,-573.544,0,0
317183,110.575,-570.663,0,0
318485,108.902,-568.57,0,0
319787,106.812,-567.4,0,0
321088,102.908,-566.856,0,0
322390,96.6703,-565.081,0,0
323691,89.6834,-560.037,0,0
324993,85.1387,-553.042,0,0
326295,82.1201,-546.46,0,0
327596,79.4831,-539.783,0,0
328898,77.6537,-532.723,0,0
330200,77.4561,-525.505,0,0
331501.125,78.6788,-519.64,0,0
332802.75,80.0717,-515.513,0,0
334104.375,80.2792,-512.911,0,0
335406.0,78.9333,-509.889,0,0
336707.625,76.8127,-505.754,0,0
338009.25,75.3703,-500.106,0,0
339310.875,74.9015,-493.979,0,0
340612.5,76.0295,-487.487,0,0
341914.125,78.9508,-481.522,0,0
343215.75,83.4741,-477.977,0,0
344517.375,87.2564,-477.045,0,0
345819.0,89.1272,-477.494,0,0
347121,89.1851,-477.974,0,0
348422,87.9204,-477.801,0,0
349724,85.9056,-476.511,0,0
351025,83.8274,-474.332,0,0
352327,81.8933,-471.245,0,0
353629,80.9182,-467.311,0,0
354930,81.0805,-464.076,0,0
356232,80.9931,-461.417,0,0
357534,80.5289,-459.163,0,0
358835,79.3586,-456.465,0,0
360137,78.2812,-452.967,0,0
361438,77.8384,-448.808,0,0
362740.1,78.513,-444.894,0,0
364041.725,79.1584,-441.845,0,0
365343.35,79.1777,-438.65,0,0
366644.975,79.4218,-434.27,0,0
367946.6,81.0524,-429.638,0,0
369248.225,84.0646,-425.326,0,0
370549.85,88.2976,-421.963,0,0
371851.475,93.8705,-420.621,0,0
373153.1,98.8042,-422.252,0,0
374454.725,101.16,-425.96,0,0
375756.35,100.548,-428.599,0,0
377057.975,99.6274,-429.868,0,0
378359.6,98.5121,-430.696,0,0
379661,97.2393,-431.194,0,0
380963,95.4877,-431.237,0,0
382264,94.6726,-429.937,0,0
383566,95.4687,-430.841,0,0
384868,93.425,-433.809,0,0
386169,88.5013,-435.242,0,0
387471,82.7689,-433.491,0,0
388773,78.9614,-429.213,0,0
390074,78.2516,-424.802,0,0
391376,79.0102,-423.212,0,0
392677,77.6206,-424.056,0,0
393979,73.4041,-423.515,0,0
395280.7,68.9807,-420.712,0,0
396582.325,65.6234,-416.565,0,0
397883.95,63.1683,-412.203,0,0
399185.575,61.2529,-407.419,0,0
400006.6,60.4132,-404.266,0,0