Folder: ML_Dmg_Mehdi_Dataset/Accelerated corrosion test data/2025-10-20_09-18-15 (part 3)

File: sample_7.csv
Frequency (Hz),Impedance (ohms),Phase (Radians),Temperature (C),Humidity (%)
10000.0,276.488,-12111.3,0,0
11301.625,248.595,-10713.1,0,0
12603.25,263.908,-9668.14,0,0
13904.875,209.583,-8767.71,0,0
15206.5,199.164,-8026.09,0,0
16508.125,172.256,-7385.47,0,0
17809.75,167.772,-6829.08,0,0
19111.375,182.868,-6389.56,0,0
20413.0,174.516,-5989.59,0,0
21714.625,158.618,-5652.87,0,0
23016.25,130.69,-5327.55,0,0
24317.875,122.545,-5033.78,0,0
25619.5,118.176,-4769.09,0,0
26921.1,120.657,-4523.6,0,0
28222.7,178.661,-4297.01,0,0
29524.4,141.915,-4188.16,0,0
30826,132.274,-3996.85,0,0
32127.6,119.016,-3847.54,0,0
33429.2,101.747,-3698.08,0,0
34730.9,92.2952,-3552.58,0,0
36032.5,88.5773,-3418.08,0,0
37334.1,86.1198,-3294.44,0,0
38635.7,86.5668,-3176.7,0,0
39937.4,100.76,-3076.9,0,0
41239,87.5241,-2991.16,0,0
42540.6,79.5652,-2894.47,0,0
43842.225,78.5592,-2804.91,0,0
45143.85,80.3254,-2727.52,0,0
46445.475,77.5734,-2654.79,0,0
47747.1,70.1162,-2578.17,0,0
49048.725,67.8359,-2507.66,0,0
50350.35,65.9337,-2440.44,0,0
51651.975,64.3828,-2376.71,0,0
52953.6,63.651,-2315.97,0,0
54255.225,62.199,-2259.56,0,0
55556.85,60.802,-2204.62,0,0
56858.475,59.9313,-2152,0,0
58160.1,59.1576,-2101.71,0,0
59461.7,59.1344,-2054.15,0,0
60763.3,58.6978,-2010.16,0,0
62065,56.6796,-1966.58,0,0
63366.6,55.3991,-1923.81,0,0
64668.2,54.8021,-1883.06,0,0
65969.8,54.7514,-1844.69,0,0
67271.5,52.9225,-1807.85,0,0
68573.1,51.947,-1770.89,0,0
69874.7,51.1715,-1735.75,0,0
71176.3,51.019,-1701.88,0,0
72478,49.9794,-1669.55,0,0
73779.6,49.1698,-1637.79,0,0
75081.2,48.5961,-1606.92,0,0
76382.825,48.0213,-1577.15,0,0
77684.45,47.7385,-1548.21,0,0
78986.075,47.4504,-1520.28,0,0
80287.7,47.2981,-1493.2,0,0
81589.325,46.9183,-1466.97,0,0
82890.95,46.607,-1441.21,0,0
84192.575,46.6307,-1416.1,0,0
85494.2,46.8857,-1391.99,0,0
86795.825,46.8596,-1368.66,0,0
88097.45,46.9453,-1345.96,0,0
89399.075,46.3227,-1323.66,0,0
90700.7,46.3956,-1301.38,0,0
92002.3,46.5548,-1279.67,0,0
93303.9,46.9581,-1257.68,0,0
94605.6,50.9671,-1237.9,0,0
95907.2,49.4017,-1221.17,0,0
97208.8,48.662,-1200.84,0,0
98510.4,49.5374,-1181.62,0,0
99812.1,49.2128,-1163.15,0,0
101114,50.4366,-1143.75,0,0
102415,52.3312,-1125.7,0,0
103717,55.1102,-1108.92,0,0
105019,56.1309,-1093.89,0,0
106320.175,55.3807,-1077.99,0,0
107621.8,56.1374,-1061.29,0,0
108923.425,57.3029,-1044.88,0,0
110225.05,57.8652,-1028.05,0,0
111526.675,60.9674,-1010.87,0,0
112828.3,65.7907,-994.183,0,0
114129.925,71.3376,-980.384,0,0
115431.55,78.023,-967.781,0,0
116733.175,86.6582,-958.807,0,0
118034.8,91.2731,-955.258,0,0
119336.425,93.7253,-953.28,0,0
120638.05,86.7768,-953.936,0,0
121939.675,74.9623,-944.117,0,0
123241,67.1409,-930.953,0,0
124543,62.5604,-916.131,0,0
125845,58.1625,-902.445,0,0
127146,54.4237,-887.551,0,0
128448,52.6915,-872.22,0,0
129749,51.0541,-857.659,0,0
131051,49.9926,-843.356,0,0
132353,48.7851,-827.941,0,0
133654,49.3006,-812.132,0,0
134956,52.3325,-797.352,0,0
136258,56.5958,-785.569,0,0
137559,56.2949,-777.383,0,0
138860.775,53.8319,-764.763,0,0
140162.4,53.6653,-750.5,0,0
141464.025,53.7034,-737.035,0,0
142765.65,54.7006,-722.488,0,0
144067.275,57.4885,-708.66,0,0
145368.9,59.6097,-696.973,0,0
146670.525,60.4583,-683.775,0,0
147972.15,61.941,-671.035,0,0
149273.775,62.2926,-658.268,0,0
150575.4,62.0762,-643.037,0,0
151877.025,63.4487,-625.611,0,0
153178.65,67.0503,-607.372,0,0
154480,72.4972,-589.032,0,0
155782,80.5019,-570.262,0,0
157084,91.1545,-552.817,0,0
158385,104.561,-538.46,0,0
159687,114.706,-529.375,0,0
160988,118.193,-515.568,0,0
162290,124.772,-492.342,0,0
163592,140.239,-467.224,0,0
164893,163.667,-444.808,0,0
166195,189.44,-420.152,0,0
167497,233.499,-395.743,0,0
168798,294.812,-389.025,0,0
170100,358.342,-410.897,0,0
171401.375,413.697,-459.883,0,0
172703.0,440.563,-532.027,0,0
174004.625,421.546,-609.898,0,0
175306.25,365.754,-642.295,0,0
176607.875,333.652,-633.588,0,0
177909.5,332.427,-629.405,0,0
179211.125,341.579,-660.528,0,0
180512.75,306.303,-688.9,0,0
181814.375,268.921,-701.125,0,0
183116.0,224.85,-698.009,0,0
184417.625,191.887,-675.471,0,0
185719.25,171.553,-652.191,0,0
187021,154.759,-625.235,0,0
188322,149.741,-599.231,0,0
189624,143.543,-580.625,0,0
190926,136.885,-558.151,0,0
192227,135.732,-532.894,0,0
193529,137.615,-507.721,0,0
194831,144.298,-483.408,0,0
196132,154.869,-462.068,0,0
197434,167.078,-444.28,0,0
198735,176.414,-428.672,0,0
200037,184.901,-409.595,0,0
201339,198.152,-387.041,0,0
202640.35,217.828,-362.493,0,0
203941.975,244.296,-341.8,0,0
205243.6,276.26,-323.752,0,0
206545.225,318.396,-314.782,0,0
207846.85,352.654,-318.36,0,0
209148.475,387.512,-311.312,0,0
210450.1,447.026,-316.406,0,0
211751.725,498.039,-358.786,0,0
213053.35,523.235,-407.279,0,0
214354.975,538.953,-451.32,0,0
215656.6,541.266,-499.717,0,0
216958.225,538.194,-544.922,0,0
218259.85,515.093,-590.431,0,0
219561,475.069,-621.968,0,0
220863,435.651,-621.353,0,0
222165,415.065,-611.091,0,0
223466,408.281,-602.869,0,0
224768,404.222,-599.386,0,0
226070,404.891,-592.634,0,0
227371,415.256,-594.497,0,0
228673,425.849,-605.317,0,0
229974,431.366,-625.724,0,0
231276,430.761,-652.402,0,0
232578,420.814,-678.261,0,0
233879,398.58,-711.099,0,0
235180.95,354.236,-726.823,0,0
236482.575,317.453,-717.797,0,0
237784.2,292.779,-707.939,0,0
239085.825,269.577,-688.839,0,0
240387.45,265.663,-670.691,0,0
241689.075,257.477,-667.688,0,0
242990.7,240.038,-657.071,0,0
244292.325,232.866,-636.822,0,0
245593.95,237.72,-623.789,0,0
246895.575,235.313,-619.194,0,0
248197.2,229.831,-609.522,0,0
249498.825,228.078,-596.613,0,0
250800,231.336,-582.989,0,0
252102,240.441,-571.389,0,0
253404,254.883,-566.751,0,0
254705,267.064,-572.989,0,0
256007,270.421,-583.414,0,0
257309,266.296,-591.138,0,0
258610,260.139,-592.383,0,0
259912,257.301,-593.303,0,0
261213,251.982,-591.543,0,0
262515,249.967,-585.876,0,0
263817,256.408,-582.415,0,0
265118,260.739,-588.423,0,0
266420,260.637,-593.81,0,0
267721.55,259.21,-600.886,0,0
269023.175,251.539,-606.776,0,0
270324.8,245.811,-604.981,0,0
271626.425,249.605,-603.537,0,0
272928.05,258.627,-617.543,0,0
274229.675,248.022,-644.976,0,0
275531.3,218.209,-661.774,0,0
276832.925,181.835,-658.504,0,0
278134.55,154.399,-638.848,0,0
279436.175,141.559,-615.02,0,0
280737.8,137.784,-594.344,0,0
282039.425,137.425,-580.679,0,0
283341,134.235,-566.784,0,0
284643,135.637,-550.155,0,0
285944,142.688,-537.316,0,0
287246,150.107,-530.616,0,0
288548,152.808,-526.931,0,0
289849,153.378,-519.377,0,0
291151,157.214,-509.315,0,0
292452,164.092,-501.572,0,0
293754,171.968,-494.805,0,0
295056,180.594,-489.17,0,0
296357,191.775,-484.274,0,0
297659,205.367,-481.998,0,0
298960.525,220.623,-483.645,0,0
300262.15,237.491,-489.299,0,0
301563.775,255.817,-501.958,0,0
302865.4,271.556,-527.794,0,0
304167.025,268.636,-561.784,0,0
305468.65,252.526,-586.144,0,0
306770.275,231.34,-603.093,0,0
308071.9,207.817,-610.847,0,0
309373.525,185.156,-611.164,0,0
310675.15,167.273,-605.319,0,0
311976.775,153.854,-598.631,0,0
313278.4,142.313,-591.932,0,0
314580,131.653,-583.626,0,0
315882,124.071,-573.617,0,0
317183,119.835,-564.402,0,0
318485,116.81,-556.875,0,0
319787,114.773,-549.992,0,0
321088,113.487,-544.694,0,0
322390,111.803,-540.264,0,0
323691,110.08,-536.207,0,0
324993,108.247,-532.382,0,0
326295,107.067,-528.53,0,0
327596,106.246,-526.295,0,0
328898,103.885,-524.983,0,0
330200,100.804,-523.271,0,0
331501.125,97.0626,-521.584,0,0
332802.75,92.1321,-519.517,0,0
334104.375,86.6037,-515.937,0,0
335406.0,81.514,-511.214,0,0
336707.625,76.7441,-505.866,0,0
338009.25,72.6846,-499.423,0,0
339310.875,69.7208,-492.809,0,0
340612.5,67.2706,-486.186,0,0
341914.125,65.3816,-479.105,0,0
343215.75,64.6244,-472.042,0,0
344517.375,64.9486,-465.403,0,0
345819.0,66.0773,-459.98,0,0
347121,66.7462,-456.058,0,0
348422,66.0185,-452.27,0,0
349724,64.7458,-447.246,0,0
351025,63.9534,-441.592,0,0
352327,64.2712,-435.043,0,0
353629,66.125,-429.037,0,0
354930,68.7847,-424.458,0,0
356232,71.2015,-421.521,0,0
357534,71.8348,-419.448,0,0
358835,70.6612,-416.301,0,0
360137,69.9596,-411.086,0,0
361438,70.6669,-405.191,0,0
362740.1,72.7453,-399.425,0,0
364041.725,75.6719,-394.392,0,0
365343.35,79.3791,-390.174,0,0
366644.975,83.0801,-387.433,0,0
367946.6,86.1738,-385.061,0,0
369248.225,89.4762,-383.306,0,0
370549.85,92.0768,-382.849,0,0
371851.475,92.6358,-382.487,0,0
373153.1,92.4183,-380.096,0,0
374454.725,93.4902,-376.807,0,0
375756.35,95.3666,-374.082,0,0
377057.975,96.8851,-372.087,0,0
378359.6,97.7879,-369.362,0,0
379661,99.5278,-365.923,0,0
380963,101.838,-363.017,0,0
382264,104.313,-360.169,0,0
383566,107.136,-357.764,0,0
384868,109.836,-355.447,0,0
386169,112.476,-353.314,0,0
387471,115.312,-350.91,0,0
388773,118.037,-347.988,0,0
390074,122.66,-344.707,0,0
391376,127.95,-343.015,0,0
392677,133.169,-341.943,0,0
393979,138.119,-341.482,0,0
395280.7,143.176,-340.17,0,0
396582.325,150.264,-338.732,0,0
397883.95,160.214,-338.919,0,0
399185.575,172.299,-343.457,0,0
400006.6,179.873,-349.931,0,0

File: sample_8.csv
Frequency (Hz),Impedance (ohms),Phase (Radians),Temperature (C),Humidity (%)
10000.0,307.114,-11001.4,0,0
11301.625,272.446,-9749.19,0,0
12603.25,251.098,-8754.77,0,0
13904.875,222.463,-7952.11,0,0
15206.5,202.898,-7276.18,0,0
16508.125,187.308,-6707.97,0,0
17809.75,174.046,-6219.84,0,0
19111.375,166.13,-5796.29,0,0
20413.0,160.192,-5434.22,0,0
21714.625,148.468,-5113.28,0,0
23016.25,143.429,-4829.24,0,0
24317.875,131.416,-4572.03,0,0
25619.5,124.508,-4338.29,0,0
26921.1,119.678,-4126.73,0,0
28222.7,117.211,-3936.76,0,0
29524.4,112.967,-3763.33,0,0
30826,108.968,-3605.1,0,0
32127.6,105.06,-3457.06,0,0
33429.2,105.048,-3319.34,0,0
34730.9,106.427,-3194.85,0,0
36032.5,109.851,-3084.37,0,0
37334.1,105.681,-2985.05,0,0
38635.7,95.3275,-2887.61,0,0
39937.4,87.727,-2790.28,0,0
41239,84.9705,-2699.81,0,0
42540.6,82.0709,-2614.39,0,0
43842.225,81.0177,-2536.92,0,0
45143.85,76.91,-2462,0,0
46445.475,74.057,-2390.8,0,0
47747.1,72.1507,-2323.16,0,0
49048.725,70.0847,-2259.43,0,0
50350.35,68.3316,-2198.42,0,0
51651.975,67.2294,-2140.14,0,0
52953.6,66.6892,-2085.16,0,0
54255.225,65.9395,-2034.99,0,0
55556.85,62.8525,-1985.73,0,0
56858.475,60.8025,-1936.68,0,0
58160.1,59.8784,-1890.16,0,0
59461.7,59.0456,-1846.17,0,0
60763.3,57.8389,-1803.07,0,0
62065,57.3266,-1762.32,0,0
63366.6,57.8629,-1722.75,0,0
64668.2,57.8443,-1686.54,0,0
65969.8,56.8959,-1651.26,0,0
67271.5,55.3343,-1616.59,0,0
68573.1,54.2537,-1582.55,0,0
69874.7,54.2217,-1549.34,0,0
71176.3,54.0943,-1518.13,0,0
72478,53.851,-1488.28,0,0
73779.6,53.0511,-1458.9,0,0
75081.2,52.2293,-1430.17,0,0
76382.825,51.9019,-1402.19,0,0
77684.45,51.4511,-1375.34,0,0
78986.075,50.7484,-1348.94,0,0
80287.7,50.1988,-1322.68,0,0
81589.325,50.418,-1296.81,0,0
82890.95,51.16,-1271.84,0,0
84192.575,52.6558,-1248.42,0,0
85494.2,51.8365,-1226.36,0,0
86795.825,51.9944,-1202.57,0,0
88097.45,52.7191,-1179.87,0,0
89399.075,53.4862,-1157.18,0,0
90700.7,55.7885,-1134.11,0,0
92002.3,59.7317,-1114.6,0,0
93303.9,61.4656,-1094.71,0,0
94605.6,63.8609,-1076.4,0,0
95907.2,65.4968,-1056.86,0,0
97208.8,68.94,-1037.47,0,0
98510.4,73.9794,-1019.21,0,0
99812.1,78.869,-1004.21,0,0
101114,83.9981,-990.423,0,0
102415,86.9973,-979.527,0,0
103717,87.1051,-967.771,0,0
105019,86.0288,-955.854,0,0
106320.175,85.3913,-941.216,0,0
107621.8,85.4635,-927.834,0,0
108923.425,85.2983,-912.929,0,0
110225.05,87.1958,-899.669,0,0
111526.675,87.7652,-887.076,0,0
112828.3,88.6016,-875.147,0,0
114129.925,88.3945,-863.294,0,0
115431.55,88.429,-851.662,0,0
116733.175,86.7017,-839.474,0,0
118034.8,86.253,-826.656,0,0
119336.425,85.9971,-814.506,0,0
120638.05,84.9468,-802.065,0,0
121939.675,84.4151,-789.526,0,0
123241,83.7336,-777.222,0,0
124543,82.5016,-764.669,0,0
125845,81.2722,-751.47,0,0
127146,80.5719,-737.633,0,0
128448,80.5165,-723.644,0,0
129749,80.402,-710.036,0,0
131051,81.4771,-695.343,0,0
132353,82.704,-682.195,0,0
133654,83.3688,-668.925,0,0
134956,84.6322,-654.616,0,0
136258,87.0853,-641.637,0,0
137559,86.9638,-629.116,0,0
138860.775,86.8223,-613.384,0,0
140162.4,88.949,-597.51,0,0
141464.025,91.3297,-581.566,0,0
142765.65,94.0372,-564.514,0,0
144067.275,98.8872,-546.761,0,0
145368.9,105.688,-528.168,0,0
146670.525,114.733,-510.437,0,0
147972.15,124.297,-495.156,0,0
149273.775,135.33,-475.635,0,0
150575.4,154.38,-456.613,0,0
151877.025,181.135,-448.521,0,0
153178.65,199.996,-451.395,0,0
154480,209.836,-454.197,0,0
155782,223.749,-454.828,0,0
157084,222.589,-466.234,0,0
158385,220.58,-455.477,0,0
159687,228.506,-453.766,0,0
160988,222.053,-451.161,0,0
162290,227.029,-434.214,0,0
163592,237.816,-431.457,0,0
164893,242.795,-429.627,0,0
166195,242.117,-432.907,0,0
167497,230.926,-427.866,0,0
168798,221.246,-413.014,0,0
170100,215.974,-390.59,0,0
171401.375,216.329,-365.644,0,0
172703.0,224.071,-337.562,0,0
174004.625,237.26,-312.841,0,0
175306.25,248.046,-290.852,0,0
176607.875,264.136,-261.377,0,0
177909.5,283.183,-232.467,0,0
179211.125,315.005,-199.267,0,0
180512.75,356.732,-172.584,0,0
181814.375,404.274,-152.033,0,0
183116.0,462.738,-148.596,0,0
184417.625,505.817,-154.017,0,0
185719.25,559.82,-158.316,0,0
187021,608.49,-178.456,0,0
188322,648.027,-200.81,0,0
189624,683.144,-223.886,0,0
190926,719.95,-240.363,0,0
192227,761.9,-268.937,0,0
193529,807.157,-282.669,0,0
194831,882.885,-323.346,0,0
196132,951.954,-402.719,0,0
197434,991.512,-520.603,0,0
198735,976.246,-651.423,0,0
200037,910.107,-760.172,0,0
201339,829.58,-816.881,0,0
202640.35,743.389,-859.157,0,0
203941.975,664.817,-854.206,0,0
205243.6,606.67,-840.12,0,0
206545.225,564.786,-808.124,0,0
207846.85,554.179,-778.849,0,0
209148.475,551.225,-766.779,0,0
210450.1,550.284,-755.226,0,0
211751.725,561.185,-754.053,0,0
213053.35,569.338,-769.389,0,0
214354.975,567.078,-789.463,0,0
215656.6,561.126,-811.74,0,0
216958.225,545.186,-836.731,0,0
218259.85,523.083,-858.005,0,0
219561,493.723,-874.951,0,0
220863,459.7,-882.621,0,0
222165,429.839,-879.082,0,0
223466,406.817,-870.349,0,0
224768,393.02,-863.846,0,0
226070,382.658,-863.936,0,0
227371,366.51,-869.103,0,0
228673,346.634,-869.388,0,0
229974,329.302,-871.555,0,0
231276,305.288,-874.029,0,0
232578,278.262,-870.5,0,0
233879,249.82,-861.159,0,0
235180.95,224.559,-842.984,0,0
236482.575,207.351,-821.13,0,0
237784.2,196.033,-799.987,0,0
239085.825,189.847,-778.795,0,0
240387.45,189.768,-762.993,0,0
241689.075,189.041,-754.059,0,0
242990.7,182.726,-745.635,0,0
244292.325,176.577,-734.167,0,0
245593.95,172.483,-722.008,0,0
246895.575,171.543,-710.135,0,0
248197.2,170.081,-700.896,0,0
249498.825,168.528,-691.477,0,0
250800,168.191,-681.543,0,0
252102,170.343,-672.917,0,0
253404,173.122,-668.164,0,0
254705,172.046,-666.155,0,0
256007,167.273,-661.985,0,0
257309,161.856,-653.7,0,0
258610,160.092,-642.017,0,0
259912,162.932,-631.166,0,0
261213,166.862,-623.626,0,0
262515,170.517,-617.702,0,0
263817,173.025,-610.633,0,0
265118,177.269,-601.744,0,0
266420,186.934,-591.333,0,0
267721.55,204.7,-585.416,0,0
269023.175,224.962,-590.708,0,0
270324.8,242.855,-604.448,0,0
271626.425,253.386,-629.534,0,0
272928.05,251.66,-658.602,0,0
274229.675,232.722,-686.527,0,0
275531.3,203.736,-698.973,0,0
276832.925,177.134,-698.855,0,0
278134.55,155.11,-691.495,0,0
279436.175,138.16,-679.304,0,0
280737.8,128.628,-664.865,0,0
282039.425,124.397,-653.402,0,0
283341,121.904,-645.078,0,0
284643,119.161,-637.236,0,0
285944,119.081,-629.639,0,0
287246,122.609,-625.673,0,0
288548,123.956,-629.616,0,0
289849,116.801,-634.69,0,0
291151,105.744,-633.837,0,0
292452,95.4914,-629.901,0,0
293754,86.0612,-623.191,0,0
295056,78.4135,-614.555,0,0
296357,73.1816,-605.333,0,0
297659,69.1889,-596.648,0,0
298960.525,66.0427,-587.725,0,0
300262.15,64.184,-578.67,0,0
301563.775,63.7655,-569.822,0,0
302865.4,64.9226,-562.016,0,0
304167.025,66.7942,-555.695,0,0
305468.65,68.8143,-550.638,0,0
306770.275,70.6834,-546.959,0,0
308071.9,72.1265,-544.111,0,0
309373.525,72.5307,-542.677,0,0
310675.15,71.3554,-540.42,0,0
311976.775,70.5162,-537.783,0,0
313278.4,69.257,-535.496,0,0
314580,67.5292,-532.764,0,0
315882,65.5075,-529.594,0,0
317183,64.0329,-525.856,0,0
318485,62.8417,-522.304,0,0
319787,62.1327,-518.501,0,0
321088,61.7763,-515.628,0,0
322390,61.1239,-513.206,0,0
323691,59.7328,-511.172,0,0
324993,57.6038,-508.76,0,0
326295,55.2507,-505.481,0,0
327596,53.4263,-501.925,0,0
328898,51.6154,-498.341,0,0
330200,49.8401,-494.441,0,0
331501.125,48.2444,-490.273,0,0
332802.75,46.9786,-485.895,0,0
334104.375,46.3661,-481.259,0,0
335406.0,46.5106,-477.043,0,0
336707.625,46.7967,-473.66,0,0
338009.25,46.6957,-470.896,0,0
339310.875,45.9976,-468.097,0,0
340612.5,44.9818,-465.06,0,0
341914.125,43.8241,-461.704,0,0
343215.75,42.8438,-457.864,0,0
344517.375,42.0768,-453.731,0,0
345819.0,41.8346,-449.483,0,0
347121,41.9926,-445.353,0,0
348422,42.3517,-441.41,0,0
349724,43.0528,-437.54,0,0
351025,44.07,-433.909,0,0
352327,45.2738,-430.766,0,0
353629,46.4039,-428.075,0,0
354930,47.4554,-425.561,0,0
356232,48.3794,-423.383,0,0
357534,49.0835,-421.267,0,0
358835,49.6525,-419.179,0,0
360137,50.1657,-417.129,0,0
361438,50.6951,-415.104,0,0
362740.1,51.1377,-413.274,0,0
364041.725,51.3766,-411.438,0,0
365343.35,51.569,-409.554,0,0
366644.975,51.6098,-407.702,0,0
367946.6,51.6882,-405.654,0,0
369248.225,51.9368,-403.426,0,0
370549.85,52.7931,-401.331,0,0
371851.475,53.7442,-400.072,0,0
373153.1,54.0767,-399.418,0,0
374454.725,53.5355,-398.798,0,0
375756.35,52.3802,-397.484,0,0
377057.975,51.6659,-395.492,0,0
378359.6,51.1763,-393.906,0,0
379661,49.9724,-391.844,0,0
380963,49.8512,-388.865,0,0
382264,50.6184,-387.393,0,0
383566,50.1416,-386.611,0,0
384868,48.775,-385.467,0,0
386169,47.1271,-383.401,0,0
387471,45.5804,-380.731,0,0
388773,44.5243,-377.533,0,0
390074,44.1043,-374.316,0,0
391376,44.0241,-371.377,0,0
392677,43.9357,-368.616,0,0
393979,43.7504,-365.819,0,0
395280.7,43.721,-362.801,0,0
396582.325,44.0601,-359.834,0,0
397883.95,44.4537,-357.148,0,0
399185.575,44.8388,-354.513,0,0
400006.6,45.0742,-352.891,0,0