Folder: ML_Dmg_Mehdi_Dataset/Accelerated corrosion test data/2025-09-30_08-18-27 (part 2)

File: sample_3.csv
Frequency (Hz),Impedance (ohms),Phase (Radians),Temperature (C),Humidity (%)
10000.0,254.568,-11746.9,0,0
11301.625,227.288,-10405,0,0
12603.25,205.749,-9338.86,0,0
13904.875,187.655,-8469.12,0,0
15206.5,175.04,-7743.67,0,0
16508.125,164.532,-7149.83,0,0
17809.75,159.409,-6621.86,0,0
19111.375,147.74,-6172.02,0,0
20413.0,157.817,-5772.06,0,0
21714.625,140.015,-5454.45,0,0
23016.25,129.762,-5149.91,0,0
24317.875,120.95,-4871.19,0,0
25619.5,115.432,-4625.57,0,0
26921.1,109.986,-4395.53,0,0
28222.7,104.946,-4190.61,0,0
29524.4,111.227,-4011.28,0,0
30826,101.949,-3841.52,0,0
32127.6,102.859,-3678.28,0,0
33429.2,100.788,-3553.19,0,0
34730.9,89.0424,-3416.5,0,0
36032.5,83.9791,-3289.15,0,0
37334.1,81.6632,-3171.85,0,0
38635.7,79.12,-3062.29,0,0
39937.4,76.919,-2960.3,0,0
41239,75.369,-2863.84,0,0
42540.6,74.4646,-2774.05,0,0
43842.225,72.7055,-2688.94,0,0
45143.85,71.4803,-2609.67,0,0
46445.475,71.1259,-2534.07,0,0
47747.1,71.0578,-2461.66,0,0
49048.725,69.5038,-2396.47,0,0
50350.35,67.6531,-2331.62,0,0
51651.975,67.2974,-2269.33,0,0
52953.6,67.5816,-2209.63,0,0
54255.225,70.2802,-2155.15,0,0
55556.85,67.9139,-2108.1,0,0
56858.475,62.612,-2055.22,0,0
58160.1,62.1344,-2003.3,0,0
59461.7,62.6206,-1954.29,0,0
60763.3,64.0089,-1907.77,0,0
62065,66.2232,-1863.39,0,0
63366.6,69.8083,-1820.13,0,0
64668.2,78.1668,-1778.71,0,0
65969.8,92.7545,-1752.59,0,0
67271.5,77.6304,-1728.16,0,0
68573.1,77.011,-1690.83,0,0
69874.7,76.4229,-1661.66,0,0
71176.3,71.0727,-1631.07,0,0
72478,69.4498,-1598.54,0,0
73779.6,67.9053,-1570.02,0,0
75081.2,64.3468,-1541.69,0,0
76382.825,60.9193,-1512.49,0,0
77684.45,58.5817,-1483.55,0,0
78986.075,56.4108,-1455.15,0,0
80287.7,54.9515,-1427.18,0,0
81589.325,53.963,-1400.06,0,0
82890.95,53.4317,-1373.71,0,0
84192.575,53.1517,-1348.1,0,0
85494.2,53.0562,-1323.19,0,0
86795.825,53.2556,-1298.89,0,0
88097.45,53.7247,-1274.82,0,0
89399.075,55.0776,-1251.25,0,0
90700.7,57.3754,-1229.14,0,0
92002.3,60.2003,-1208.01,0,0
93303.9,63.806,-1189.32,0,0
94605.6,65.8013,-1175.06,0,0
95907.2,60.0871,-1158.19,0,0
97208.8,59.2438,-1137.25,0,0
98510.4,59.4207,-1118.44,0,0
99812.1,58.5166,-1100.34,0,0
101114,57.4415,-1081.01,0,0
102415,58.433,-1060.35,0,0
103717,62.5694,-1042.55,0,0
105019,66.4898,-1029.06,0,0
106320.175,64.7184,-1016.72,0,0
107621.8,61.2064,-1000.74,0,0
108923.425,58.9433,-982.654,0,0
110225.05,58.9734,-963.595,0,0
111526.675,61.5937,-945.394,0,0
112828.3,63.5518,-929.355,0,0
114129.925,65.1764,-913.011,0,0
115431.55,67.7225,-896.469,0,0
116733.175,71.5016,-880.164,0,0
118034.8,77.1523,-864.778,0,0
119336.425,84.109,-853.311,0,0
120638.05,88.5353,-847.139,0,0
121939.675,86.7112,-837.845,0,0
123241,86.9732,-825.147,0,0
124543,88.1897,-813.934,0,0
125845,88.9484,-803.814,0,0
127146,88.0141,-793.75,0,0
128448,85.965,-782.544,0,0
129749,84.4051,-769.13,0,0
131051,85.2107,-755.637,0,0
132353,84.9911,-744.316,0,0
133654,84.346,-732.023,0,0
134956,83.1779,-719.216,0,0
136258,82.0984,-705.463,0,0
137559,82.3252,-690.348,0,0
138860.775,83.649,-676.885,0,0
140162.4,83.0397,-663.607,0,0
141464.025,83.025,-648.85,0,0
142765.65,82.7101,-633.192,0,0
144067.275,83.1755,-616.175,0,0
145368.9,84.8679,-598.386,0,0
146670.525,87.4367,-579.585,0,0
147972.15,91.9058,-559.636,0,0
149273.775,98.7021,-539.331,0,0
150575.4,108.782,-518.909,0,0
151877.025,122.063,-501.744,0,0
153178.65,134.944,-487.673,0,0
154480,145.936,-475.369,0,0
155782,154.085,-460.092,0,0
157084,166.441,-443.237,0,0
158385,181.501,-429.863,0,0
159687,190.779,-414.912,0,0
160988,203.259,-388.515,0,0
162290,232.846,-361.653,0,0
163592,272.468,-345.608,0,0
164893,317.834,-337.453,0,0
166195,370.249,-352.93,0,0
167497,405.428,-385.136,0,0
168798,424.943,-422.441,0,0
170100,429.438,-459.092,0,0
171401.375,412.781,-479.369,0,0
172703.0,407.513,-484.008,0,0
174004.625,410.689,-489.292,0,0
175306.25,419.042,-507.584,0,0
176607.875,407.253,-531.069,0,0
177909.5,389.819,-542.588,0,0
179211.125,365.294,-538.247,0,0
180512.75,356.568,-523.585,0,0
181814.375,361.318,-518.316,0,0
183116.0,354.945,-525.696,0,0
184417.625,340.287,-521.033,0,0
185719.25,327.579,-506.118,0,0
187021,323.016,-485.221,0,0
188322,328.951,-466.246,0,0
189624,335.984,-453.015,0,0
190926,344.459,-437.577,0,0
192227,354.68,-424.279,0,0
193529,366.295,-408.567,0,0
194831,387.899,-389.734,0,0
196132,421.962,-386.882,0,0
197434,445.042,-399.181,0,0
198735,453.817,-410.072,0,0
200037,460.372,-408.258,0,0
201339,469.678,-407.231,0,0
202640.35,482.518,-399.172,0,0
203941.975,507.963,-392.357,0,0
205243.6,539.589,-397.355,0,0
206545.225,561.968,-415.969,0,0
207846.85,576.171,-424.653,0,0
209148.475,600.662,-429.002,0,0
210450.1,634.183,-444.665,0,0
211751.725,663.455,-472.841,0,0
213053.35,686.602,-505.797,0,0
214354.975,707.318,-546.429,0,0
215656.6,716.614,-593.83,0,0
216958.225,718.616,-641.023,0,0
218259.85,707.508,-690.113,0,0
219561,685.205,-732.725,0,0
220863,665.949,-766.492,0,0
222165,635.853,-807.823,0,0
223466,590.963,-834.021,0,0
224768,549.245,-840.296,0,0
226070,521.999,-838.689,0,0
227371,504.389,-846.652,0,0
228673,479.573,-857.91,0,0
229974,450.065,-866.801,0,0
231276,418.527,-868.475,0,0
232578,390.357,-864.512,0,0
233879,365.673,-859.171,0,0
235180.95,342.25,-853.973,0,0
236482.575,318.089,-847.213,0,0
237784.2,294.206,-836.832,0,0
239085.825,271.699,-822.563,0,0
240387.45,253.631,-804.286,0,0
241689.075,241.169,-785.394,0,0
242990.7,232.606,-767.217,0,0
244292.325,227.822,-751.367,0,0
245593.95,223.851,-739.419,0,0
246895.575,219.24,-727.493,0,0
248197.2,215.551,-715.57,0,0
249498.825,214.53,-704.402,0,0
250800,213.857,-696.734,0,0
252102,209.887,-691.047,0,0
253404,202.776,-681.978,0,0
254705,197.793,-667.445,0,0
256007,197.973,-651.2,0,0
257309,205.547,-635.812,0,0
258610,216.795,-627.989,0,0
259912,226.742,-622.422,0,0
261213,241.127,-622.682,0,0
262515,251.792,-633.017,0,0
263817,252.488,-647.509,0,0
265118,244.139,-659.658,0,0
266420,229.143,-665.122,0,0
267721.55,214.448,-661.749,0,0
269023.175,204.158,-653.063,0,0
270324.8,198.734,-643.479,0,0
271626.425,196.506,-634.262,0,0
272928.05,196.65,-626.862,0,0
274229.675,196.819,-620.618,0,0
275531.3,199.114,-613.607,0,0
276832.925,204.801,-608.297,0,0
278134.55,213.415,-609.411,0,0
279436.175,217.354,-616.832,0,0
280737.8,213.716,-625.663,0,0
282039.425,205.995,-629.042,0,0
283341,198.394,-630.364,0,0
284643,189.872,-628.761,0,0
285944,182.418,-624.868,0,0
287246,176.264,-618.452,0,0
288548,174.391,-610.624,0,0
289849,176.007,-606.298,0,0
291151,175.564,-605.092,0,0
292452,173.761,-603.368,0,0
293754,171.849,-600.255,0,0
295056,172.921,-597.299,0,0
296357,174.757,-597.955,0,0
297659,173.964,-601.201,0,0
298960.525,169.85,-604.781,0,0
300262.15,163.405,-606.177,0,0
301563.775,156.578,-605.851,0,0
302865.4,149.375,-603.844,0,0
304167.025,142.878,-600.24,0,0
305468.65,137.318,-595.421,0,0
306770.275,133.061,-590.195,0,0
308071.9,130.427,-584.876,0,0
309373.525,128.62,-581.24,0,0
310675.15,125.769,-578.509,0,0
311976.775,121.932,-575.104,0,0
313278.4,117.925,-570.743,0,0
314580,114.67,-564.664,0,0
315882,113.458,-558.099,0,0
317183,114.337,-552.773,0,0
318485,115.593,-549.716,0,0
319787,115.555,-547.525,0,0
321088,115.262,-545.296,0,0
322390,115.561,-543.3,0,0
323691,115.649,-542.951,0,0
324993,114.102,-543.4,0,0
326295,110.846,-543.635,0,0
327596,106.736,-542.664,0,0
328898,102.516,-540.393,0,0
330200,98.858,-538.065,0,0
331501.125,94.5884,-535.376,0,0
332802.75,90.0468,-531.895,0,0
334104.375,85.7547,-527.3,0,0
335406.0,81.8213,-521.754,0,0
336707.625,79.2269,-515.584,0,0
338009.25,77.5312,-509.336,0,0
339310.875,76.4284,-502.93,0,0
340612.5,76.8066,-496.455,0,0
341914.125,78.8027,-491.052,0,0
343215.75,81.1667,-487.502,0,0
344517.375,82.6885,-485.56,0,0
345819.0,82.7563,-483.871,0,0
347121,82.1206,-481.726,0,0
348422,81.2195,-478.807,0,0
349724,81.1184,-475.35,0,0
351025,81.9865,-472.285,0,0
352327,83.0091,-470.472,0,0
353629,83.0739,-469.909,0,0
354930,81.3481,-468.959,0,0
356232,79.257,-466.568,0,0
357534,77.6996,-463.385,0,0
358835,76.6245,-460.057,0,0
360137,75.8864,-456.487,0,0
361438,75.7759,-452.897,0,0
362740.1,76.2383,-449.489,0,0
364041.725,77.1309,-446.64,0,0
365343.35,78.4985,-444.681,0,0
366644.975,79.1662,-444.303,0,0
367946.6,77.3109,-444.168,0,0
369248.225,74.2581,-441.287,0,0
370549.85,73.7129,-436.219,0,0
371851.475,75.6147,-433.184,0,0
373153.1,76.2798,-432.603,0,0
374454.725,74.951,-431.346,0,0
375756.35,73.4385,-428.704,0,0
377057.975,72.5589,-425.254,0,0
378359.6,72.8368,-421.703,0,0
379661,73.8343,-419.012,0,0
380963,74.6681,-416.952,0,0
382264,75.4585,-415.33,0,0
383566,75.6841,-414.558,0,0
384868,74.651,-413.6,0,0
386169,73.1891,-411.602,0,0
387471,71.8557,-408.753,0,0
388773,71.1744,-405.435,0,0
390074,71.0215,-401.781,0,0
391376,71.7543,-398.06,0,0
392677,73.3362,-394.784,0,0
393979,75.5315,-392.219,0,0
395280.7,77.9402,-390.844,0,0
396582.325,79.9291,-390.548,0,0
397883.95,80.9992,-391.062,0,0
399185.575,80.8039,-391.751,0,0
400006.6,80.0872,-391.943,0,0

File: sample_4.csv
Frequency (Hz),Impedance (ohms),Phase (Radians),Temperature (C),Humidity (%)
10000.0,265.621,-11844.9,0,0
11301.625,236.631,-10493.6,0,0
12603.25,213.964,-9414.56,0,0
13904.875,195.322,-8535.85,0,0
15206.5,182.835,-7813.45,0,0
16508.125,184.511,-7197.46,0,0
17809.75,157.596,-6693.81,0,0
19111.375,146.647,-6238.61,0,0
20413.0,142.8,-5839.96,0,0
21714.625,145.897,-5494,0,0
23016.25,126.781,-5195.46,0,0
24317.875,117.473,-4911.65,0,0
25619.5,113.613,-4658.86,0,0
26921.1,108.274,-4430.69,0,0
28222.7,120.026,-4223.52,0,0
29524.4,114.146,-4048.57,0,0
30826,100.493,-3877.26,0,0
32127.6,100.099,-3717.46,0,0
33429.2,91.551,-3576.66,0,0
34730.9,86.2561,-3438.91,0,0
36032.5,82.9642,-3311.75,0,0
37334.1,80.8963,-3193,0,0
38635.7,78.3754,-3081.49,0,0
39937.4,78.0671,-2976.14,0,0
41239,80.5432,-2881.01,0,0
42540.6,79.4928,-2794.72,0,0
43842.225,74.8344,-2710.92,0,0
45143.85,72.2968,-2629.9,0,0
46445.475,71.7056,-2553.01,0,0
47747.1,71.0229,-2483.66,0,0
49048.725,67.0833,-2414.44,0,0
50350.35,65.4817,-2347.16,0,0
51651.975,65.0464,-2282.53,0,0
52953.6,66.8235,-2219.72,0,0
54255.225,74.5502,-2163.48,0,0
55556.85,72.6248,-2120.24,0,0
56858.475,66.5747,-2067.19,0,0
58160.1,67.3688,-2014.66,0,0
59461.7,71.5772,-1964.02,0,0
60763.3,81.1225,-1926.55,0,0
62065,70.7548,-1893.49,0,0
63366.6,65.3457,-1847.57,0,0
64668.2,65.2475,-1804.52,0,0
65969.8,67.206,-1764.36,0,0
67271.5,70.8957,-1728.07,0,0
68573.1,74.3047,-1699.45,0,0
69874.7,66.9509,-1669.5,0,0
71176.3,65.91,-1635.06,0,0
72478,59.7771,-1604.1,0,0
73779.6,58.3625,-1567.47,0,0
75081.2,60.4887,-1534.94,0,0
76382.825,62.9492,-1506.1,0,0
77684.45,65.5961,-1478.13,0,0
78986.075,64.6122,-1455.81,0,0
80287.7,61.4586,-1429.13,0,0
81589.325,60.8568,-1403.1,0,0
82890.95,59.6319,-1378.14,0,0
84192.575,58.4757,-1353.37,0,0
85494.2,57.7106,-1329.12,0,0
86795.825,56.9772,-1305.4,0,0
88097.45,55.6812,-1283.03,0,0
89399.075,54.0534,-1258.88,0,0
90700.7,53.973,-1235.73,0,0
92002.3,54.2244,-1212.66,0,0
93303.9,55.5925,-1191.92,0,0
94605.6,54.2691,-1171.65,0,0
95907.2,53.5989,-1149.22,0,0
97208.8,54.4409,-1127.68,0,0
98510.4,55.5657,-1106.45,0,0
99812.1,58.1701,-1085.79,0,0
101114,62.2002,-1067.05,0,0
102415,61.4278,-1052.58,0,0
103717,58.3262,-1030.47,0,0
105019,61.935,-1006.75,0,0
106320.175,68.1583,-986.627,0,0
107621.8,74.5828,-968.569,0,0
108923.425,82.4155,-951.409,0,0
110225.05,90.2471,-938.21,0,0
111526.675,96.6694,-926.435,0,0
112828.3,102.446,-915.976,0,0
114129.925,106.66,-907.239,0,0
115431.55,109.255,-899.336,0,0
116733.175,109.303,-891.405,0,0
118034.8,107.035,-881.086,0,0
119336.425,108.448,-867.328,0,0
120638.05,113.52,-862.426,0,0
121939.675,106.42,-856.543,0,0
123241,101.268,-844.48,0,0
124543,98.2335,-832.074,0,0
125845,95.5599,-819.573,0,0
127146,92.6465,-808.515,0,0
128448,87.7866,-796.251,0,0
129749,81.6886,-781.866,0,0
131051,76.9342,-764.409,0,0
132353,74.3476,-745.925,0,0
133654,73.4137,-727.074,0,0
134956,73.9434,-708.038,0,0
136258,76.2013,-689.65,0,0
137559,79.216,-672.126,0,0
138860.775,81.2204,-654.793,0,0
140162.4,84.3307,-636.073,0,0
141464.025,89.325,-616.98,0,0
142765.65,95.3671,-598.908,0,0
144067.275,101.847,-580.813,0,0
145368.9,109.595,-562.168,0,0
146670.525,118.857,-543.621,0,0
147972.15,129.75,-525.638,0,0
149273.775,141.905,-507.211,0,0
150575.4,157.525,-489.425,0,0
151877.025,176.448,-473.674,0,0
153178.65,197.817,-461.916,0,0
154480,219.134,-456.514,0,0
155782,235.832,-453.047,0,0
157084,251.917,-450.065,0,0
158385,266.879,-445.517,0,0
159687,287.061,-442.753,0,0
160988,304.147,-449.012,0,0
162290,312.187,-456.89,0,0
163592,316.245,-455.804,0,0
164893,325.42,-448.009,0,0
166195,342.922,-443.413,0,0
167497,366.891,-442.299,0,0
168798,396.233,-457.969,0,0
170100,410.879,-488.239,0,0
171401.375,409.323,-524.557,0,0
172703.0,384.54,-550.799,0,0
174004.625,350.45,-556.916,0,0
175306.25,323.074,-545.241,0,0
176607.875,305.369,-524.514,0,0
177909.5,298.379,-500.813,0,0
179211.125,298.91,-480.434,0,0
180512.75,301.479,-462.421,0,0
181814.375,304.947,-445.515,0,0
183116.0,308.376,-428.073,0,0
184417.625,312.994,-407.337,0,0
185719.25,321.171,-384.209,0,0
187021,334.386,-358.486,0,0
188322,353.489,-332.153,0,0
189624,379.364,-305.881,0,0
190926,413.296,-281.073,0,0
192227,456.731,-261.301,0,0
193529,506.572,-250.651,0,0
194831,559.271,-248.39,0,0
196132,616.101,-253.875,0,0
197434,677.976,-269.176,0,0
198735,745.185,-301.455,0,0
200037,808.056,-357.847,0,0
201339,850.972,-434.609,0,0
202640.35,867.241,-518.685,0,0
203941.975,860.196,-593.609,0,0
205243.6,843.892,-661.145,0,0
206545.225,819.163,-721.547,0,0
207846.85,784.37,-777.72,0,0
209148.475,733.898,-823.986,0,0
210450.1,677.73,-847.264,0,0
211751.725,631.044,-854.527,0,0
213053.35,592.396,-852.3,0,0
214354.975,566.915,-845.786,0,0
215656.6,552.861,-845.655,0,0
216958.225,537.107,-854.31,0,0
218259.85,516.577,-863.704,0,0
219561,493.41,-869.418,0,0
220863,472.85,-874.861,0,0
222165,449.829,-880.441,0,0
223466,424.888,-882.393,0,0
224768,401.333,-883.573,0,0
226070,375.806,-884.249,0,0
227371,346.974,-879.727,0,0
228673,319.633,-870.44,0,0
229974,294.73,-855.23,0,0
231276,275.617,-836.496,0,0
232578,262.504,-818.179,0,0
233879,252.101,-801.038,0,0
235180.95,244.797,-785.161,0,0
236482.575,239.22,-771.084,0,0
237784.2,234.561,-757.697,0,0
239085.825,232.452,-745.393,0,0
240387.45,231.395,-736.151,0,0
241689.075,229.601,-729.567,0,0
242990.7,225.859,-723.896,0,0
244292.325,220.734,-717.929,0,0
245593.95,214.242,-710.953,0,0
246895.575,208.358,-701.217,0,0
248197.2,205.237,-691.362,0,0
249498.825,202.713,-683.361,0,0
250800,199.151,-675.471,0,0
252102,195.45,-668.063,0,0
253404,188.832,-659.062,0,0
254705,183.423,-644.687,0,0
256007,182.013,-628.305,0,0
257309,184.763,-610.236,0,0
258610,192.918,-593.24,0,0
259912,205.87,-577.739,0,0
261213,224.849,-566.876,0,0
262515,246.391,-564.721,0,0
263817,266.703,-569.292,0,0
265118,283.668,-579.688,0,0
266420,298.521,-596.706,0,0
267721.55,302.845,-620.666,0,0
269023.175,296.99,-640.054,0,0
270324.8,285.927,-656.506,0,0
271626.425,272.21,-663.554,0,0
272928.05,263.309,-669.216,0,0
274229.675,252.453,-677.357,0,0
275531.3,236.646,-684.302,0,0
276832.925,215.959,-684.857,0,0
278134.55,197.027,-675.892,0,0
279436.175,185.161,-662.159,0,0
280737.8,181.257,-648.535,0,0
282039.425,180.788,-639.953,0,0
283341,179.368,-633.234,0,0
284643,180.398,-628.254,0,0
285944,178.65,-626.479,0,0
287246,174.043,-623.852,0,0
288548,167.153,-616.174,0,0
289849,167.208,-602.733,0,0
291151,176.31,-593.167,0,0
292452,188.654,-592.215,0,0
293754,197.836,-600.141,0,0
295056,199.156,-613.052,0,0
296357,191.483,-623.977,0,0
297659,179.926,-628.895,0,0
298960.525,169.039,-628.378,0,0
300262.15,160.563,-626.379,0,0
301563.775,152.56,-623.747,0,0
302865.4,144.625,-619.867,0,0
304167.025,137.954,-614.536,0,0
305468.65,132.701,-608.769,0,0
306770.275,128.741,-602.616,0,0
308071.9,126.564,-597.447,0,0
309373.525,124.339,-593.613,0,0
310675.15,121.443,-590.306,0,0
311976.775,118.061,-586.732,0,0
313278.4,114.638,-582.385,0,0
314580,112.207,-577.575,0,0
315882,110.786,-573.175,0,0
317183,109.929,-569.96,0,0
318485,108.782,-567.923,0,0
319787,106.441,-567.008,0,0
321088,102.285,-565.983,0,0
322390,96.352,-564.177,0,0
323691,89.5004,-559.313,0,0
324993,84.681,-552.172,0,0
326295,81.8828,-545.411,0,0
327596,79.3709,-538.691,0,0
328898,77.75,-531.555,0,0
330200,77.7391,-524.496,0,0
331501.125,79.1359,-518.825,0,0
332802.75,80.192,-515.223,0,0
334104.375,79.9485,-512.105,0,0
335406.0,78.7912,-508.772,0,0
336707.625,77.1643,-504.583,0,0
338009.25,75.5297,-499.265,0,0
339310.875,75.1106,-492.823,0,0
340612.5,76.5589,-486.419,0,0
341914.125,79.4776,-480.969,0,0
343215.75,83.6952,-477.173,0,0
344517.375,87.5948,-476.17,0,0
345819.0,89.5427,-476.727,0,0
347121,89.5493,-477.208,0,0
348422,88.331,-477.001,0,0
349724,86.4077,-475.891,0,0
351025,84.1426,-473.821,0,0
352327,82.2434,-470.633,0,0
353629,80.994,-466.837,0,0
354930,81.0656,-462.899,0,0
356232,81.6536,-460.296,0,0
357534,81.4377,-458.269,0,0
358835,80.4182,-456.201,0,0
360137,78.6817,-452.811,0,0
361438,78.1473,-448.441,0,0
362740.1,78.6977,-444.273,0,0
364041.725,79.814,-440.835,0,0
365343.35,80.3725,-438.089,0,0
366644.975,80.2596,-434.5,0,0
367946.6,81.3544,-429.836,0,0
369248.225,84.0884,-424.957,0,0
370549.85,88.9776,-421.595,0,0
371851.475,94.2444,-420.634,0,0
373153.1,99.082,-422.268,0,0
374454.725,101.165,-426.109,0,0
375756.35,100.197,-428.583,0,0
377057.975,99.32,-429.398,0,0
378359.6,98.5126,-430.275,0,0
379661,96.9809,-430.618,0,0
380963,95.8001,-430.391,0,0
382264,94.9325,-430.313,0,0
383566,94.4318,-430.746,0,0
384868,92.7984,-432.737,0,0
386169,88.5244,-433.952,0,0
387471,83.4907,-432.568,0,0
388773,79.4389,-429.043,0,0
390074,77.9373,-424.737,0,0
391376,78.3963,-422.395,0,0
392677,77.5611,-422.616,0,0
393979,74.1084,-422.499,0,0
395280.7,69.4608,-420.256,0,0
396582.325,65.7411,-416.176,0,0
397883.95,63.1389,-411.405,0,0
399185.575,61.4719,-406.566,0,0
400006.6,60.6992,-403.532,0,0