Folder: ML_Dmg_Mehdi_Dataset/Accelerated corrosion test data/2025-09-30_06-00-03 (part 2)

File: sample_3.csv
Frequency (Hz),Impedance (ohms),Phase (Radians),Temperature (C),Humidity (%)
10000.0,254.989,-11742.3,0,0
11301.625,227.581,-10401.5,0,0
12603.25,206.428,-9335.24,0,0
13904.875,188.56,-8466.24,0,0
15206.5,175.392,-7740.62,0,0
16508.125,165.008,-7147.64,0,0
17809.75,159.844,-6620.57,0,0
19111.375,147.875,-6170.33,0,0
20413.0,158.556,-5770.46,0,0
21714.625,140.404,-5452.77,0,0
23016.25,129.724,-5147.96,0,0
24317.875,120.495,-4870.23,0,0
25619.5,115.717,-4623.96,0,0
26921.1,109.721,-4394.57,0,0
28222.7,104.775,-4188.98,0,0
29524.4,111.075,-4010.69,0,0
30826,101.884,-3840.2,0,0
32127.6,102.79,-3677.52,0,0
33429.2,101.367,-3551.97,0,0
34730.9,89.1185,-3415.32,0,0
36032.5,84.6062,-3288.18,0,0
37334.1,81.7793,-3170.82,0,0
38635.7,79.2824,-3061.31,0,0
39937.4,77.0064,-2959.3,0,0
41239,75.7401,-2862.96,0,0
42540.6,74.7773,-2773.43,0,0
43842.225,73.1333,-2688.12,0,0
45143.85,71.8481,-2608.99,0,0
46445.475,71.1002,-2533.27,0,0
47747.1,71.2235,-2460.97,0,0
49048.725,69.6154,-2395.92,0,0
50350.35,67.8233,-2330.93,0,0
51651.975,67.5123,-2268.64,0,0
52953.6,67.7453,-2209.06,0,0
54255.225,70.3684,-2154.63,0,0
55556.85,67.9832,-2107.46,0,0
56858.475,62.6923,-2054.74,0,0
58160.1,62.1166,-2002.76,0,0
59461.7,62.7466,-1953.81,0,0
60763.3,64.18,-1907.1,0,0
62065,66.3032,-1862.86,0,0
63366.6,69.8007,-1819.54,0,0
64668.2,78.2742,-1778.33,0,0
65969.8,93.0009,-1752.09,0,0
67271.5,77.6353,-1727.54,0,0
68573.1,76.9869,-1690.51,0,0
69874.7,76.4352,-1661.21,0,0
71176.3,71.1702,-1630.47,0,0
72478,69.4683,-1597.99,0,0
73779.6,67.8781,-1569.6,0,0
75081.2,64.4353,-1541.25,0,0
76382.825,61.0034,-1511.97,0,0
77684.45,58.6456,-1483.11,0,0
78986.075,56.5348,-1454.74,0,0
80287.7,55.0274,-1426.8,0,0
81589.325,54.0702,-1399.65,0,0
82890.95,53.4906,-1373.32,0,0
84192.575,53.2249,-1347.71,0,0
85494.2,53.1267,-1322.71,0,0
86795.825,53.3694,-1298.44,0,0
88097.45,53.8715,-1274.52,0,0
89399.075,55.195,-1250.76,0,0
90700.7,57.4492,-1228.61,0,0
92002.3,60.3439,-1207.54,0,0
93303.9,64.0494,-1189.01,0,0
94605.6,65.8686,-1174.76,0,0
95907.2,60.177,-1157.84,0,0
97208.8,59.2681,-1136.83,0,0
98510.4,59.4995,-1118.14,0,0
99812.1,58.6311,-1100,0,0
101114,57.5359,-1080.64,0,0
102415,58.5164,-1060.02,0,0
103717,62.6251,-1042.23,0,0
105019,66.6316,-1028.78,0,0
106320.175,64.7555,-1016.47,0,0
107621.8,61.232,-1000.46,0,0
108923.425,59.0462,-982.329,0,0
110225.05,59.0534,-963.292,0,0
111526.675,61.4852,-945.136,0,0
112828.3,63.7087,-929.016,0,0
114129.925,65.2662,-912.779,0,0
115431.55,67.8379,-896.285,0,0
116733.175,71.6068,-879.924,0,0
118034.8,77.1985,-864.555,0,0
119336.425,84.1743,-853.037,0,0
120638.05,88.6286,-846.899,0,0
121939.675,86.7579,-837.622,0,0
123241,87.0656,-824.909,0,0
124543,88.2396,-813.729,0,0
125845,88.9702,-803.624,0,0
127146,87.9859,-793.607,0,0
128448,85.9375,-782.313,0,0
129749,84.3725,-768.888,0,0
131051,85.2273,-755.381,0,0
132353,84.9904,-744.065,0,0
133654,84.3559,-731.802,0,0
134956,83.1878,-718.932,0,0
136258,82.0579,-705.165,0,0
137559,82.2958,-690.093,0,0
138860.775,83.6817,-676.616,0,0
140162.4,83.0609,-663.304,0,0
141464.025,83.0541,-648.571,0,0
142765.65,82.729,-632.917,0,0
144067.275,83.2287,-615.848,0,0
145368.9,84.8989,-598.065,0,0
146670.525,87.5025,-579.264,0,0
147972.15,91.9671,-559.346,0,0
149273.775,98.7937,-539.002,0,0
150575.4,108.865,-518.592,0,0
151877.025,122.155,-501.486,0,0
153178.65,135.049,-487.345,0,0
154480,146.099,-475.033,0,0
155782,154.286,-459.848,0,0
157084,166.518,-442.971,0,0
158385,181.7,-429.552,0,0
159687,191.011,-414.639,0,0
160988,203.446,-388.028,0,0
162290,233.08,-361.304,0,0
163592,272.901,-345.414,0,0
164893,318.309,-337.112,0,0
166195,370.729,-353.069,0,0
167497,405.597,-385.234,0,0
168798,425.095,-422.382,0,0
170100,429.498,-459.377,0,0
171401.375,412.823,-479.357,0,0
172703.0,407.656,-484.066,0,0
174004.625,410.695,-489.498,0,0
175306.25,418.821,-507.677,0,0
176607.875,406.968,-530.785,0,0
177909.5,389.782,-542.505,0,0
179211.125,365.104,-538.024,0,0
180512.75,356.54,-523.167,0,0
181814.375,361.415,-517.987,0,0
183116.0,354.871,-525.39,0,0
184417.625,340.383,-520.773,0,0
185719.25,327.717,-505.669,0,0
187021,323.026,-484.777,0,0
188322,329.149,-465.718,0,0
189624,336.409,-452.64,0,0
190926,344.745,-437.433,0,0
192227,354.92,-424.117,0,0
193529,366.601,-408.404,0,0
194831,388.193,-389.614,0,0
196132,422.369,-386.722,0,0
197434,445.544,-399.158,0,0
198735,454.133,-410.804,0,0
200037,460.531,-408.579,0,0
201339,469.735,-407.306,0,0
202640.35,482.628,-399.162,0,0
203941.975,508.134,-392.38,0,0
205243.6,539.721,-397.323,0,0
206545.225,562.218,-415.836,0,0
207846.85,576.301,-425.287,0,0
209148.475,600.57,-429.174,0,0
210450.1,633.98,-444.762,0,0
211751.725,663.454,-472.971,0,0
213053.35,686.412,-505.865,0,0
214354.975,707.163,-546.455,0,0
215656.6,716.343,-593.699,0,0
216958.225,718.577,-640.929,0,0
218259.85,707.529,-689.883,0,0
219561,685.379,-732.728,0,0
220863,665.769,-766.671,0,0
222165,635.816,-807.776,0,0
223466,590.869,-834.087,0,0
224768,549.201,-840.451,0,0
226070,522.104,-838.632,0,0
227371,504.46,-846.768,0,0
228673,479.667,-858.073,0,0
229974,450.01,-866.827,0,0
231276,418.495,-868.688,0,0
232578,390.249,-864.563,0,0
233879,365.52,-859.275,0,0
235180.95,341.987,-853.965,0,0
236482.575,317.721,-847.183,0,0
237784.2,293.953,-836.63,0,0
239085.825,271.582,-822.383,0,0
240387.45,253.391,-804.031,0,0
241689.075,241.042,-785.248,0,0
242990.7,232.549,-766.899,0,0
244292.325,227.807,-751.183,0,0
245593.95,223.856,-739.296,0,0
246895.575,219.323,-727.227,0,0
248197.2,215.576,-715.481,0,0
249498.825,214.538,-704.29,0,0
250800,213.878,-696.548,0,0
252102,209.874,-690.951,0,0
253404,202.802,-681.83,0,0
254705,197.804,-667.199,0,0
256007,198.062,-651.061,0,0
257309,205.616,-635.703,0,0
258610,216.923,-627.908,0,0
259912,226.92,-622.305,0,0
261213,241.265,-622.789,0,0
262515,251.85,-633.058,0,0
263817,252.477,-647.635,0,0
265118,243.973,-659.675,0,0
266420,228.962,-665.069,0,0
267721.55,214.332,-661.613,0,0
269023.175,204.035,-652.8,0,0
270324.8,198.827,-643.234,0,0
271626.425,196.533,-634.088,0,0
272928.05,196.623,-626.739,0,0
274229.675,196.863,-620.49,0,0
275531.3,199.172,-613.518,0,0
276832.925,204.903,-608.246,0,0
278134.55,213.44,-609.377,0,0
279436.175,217.322,-616.847,0,0
280737.8,213.665,-625.677,0,0
282039.425,205.937,-629.051,0,0
283341,198.288,-630.328,0,0
284643,189.781,-628.661,0,0
285944,182.298,-624.74,0,0
287246,176.199,-618.305,0,0
288548,174.341,-610.481,0,0
289849,175.927,-606.142,0,0
291151,175.531,-604.896,0,0
292452,173.768,-603.183,0,0
293754,171.914,-600.095,0,0
295056,172.953,-597.167,0,0
296357,174.836,-597.845,0,0
297659,174.06,-601.144,0,0
298960.525,169.891,-604.764,0,0
300262.15,163.447,-606.175,0,0
301563.775,156.545,-605.837,0,0
302865.4,149.374,-603.803,0,0
304167.025,142.837,-600.197,0,0
305468.65,137.281,-595.351,0,0
306770.275,133.021,-590.131,0,0
308071.9,130.414,-584.807,0,0
309373.525,128.616,-581.172,0,0
310675.15,125.741,-578.444,0,0
311976.775,121.925,-575.019,0,0
313278.4,117.897,-570.644,0,0
314580,114.6,-564.56,0,0
315882,113.46,-558.013,0,0
317183,114.398,-552.794,0,0
318485,115.547,-549.682,0,0
319787,115.59,-547.537,0,0
321088,115.307,-545.245,0,0
322390,115.595,-543.181,0,0
323691,115.605,-542.895,0,0
324993,114.025,-543.349,0,0
326295,110.881,-543.573,0,0
327596,106.664,-542.62,0,0
328898,102.509,-540.401,0,0
330200,98.7745,-537.954,0,0
331501.125,94.5374,-535.263,0,0
332802.75,90.0399,-531.762,0,0
334104.375,85.6902,-527.249,0,0
335406.0,81.8178,-521.678,0,0
336707.625,79.1295,-515.385,0,0
338009.25,77.5038,-509.246,0,0
339310.875,76.4456,-502.82,0,0
340612.5,76.822,-496.305,0,0
341914.125,78.7922,-490.922,0,0
343215.75,81.2001,-487.406,0,0
344517.375,82.7018,-485.475,0,0
345819.0,82.7787,-483.813,0,0
347121,82.1234,-481.718,0,0
348422,81.164,-478.727,0,0
349724,81.1362,-475.23,0,0
351025,81.9717,-472.177,0,0
352327,83.0087,-470.442,0,0
353629,83.0642,-469.863,0,0
354930,81.2479,-468.934,0,0
356232,79.2065,-466.472,0,0
357534,77.6444,-463.305,0,0
358835,76.6297,-459.976,0,0
360137,75.8625,-456.378,0,0
361438,75.724,-452.76,0,0
362740.1,76.1967,-449.372,0,0
364041.725,77.1535,-446.555,0,0
365343.35,78.4671,-444.549,0,0
366644.975,79.1725,-444.208,0,0
367946.6,77.2705,-444.122,0,0
369248.225,74.2096,-441.191,0,0
370549.85,73.6792,-436.127,0,0
371851.475,75.5998,-433.076,0,0
373153.1,76.2762,-432.47,0,0
374454.725,74.8874,-431.275,0,0
375756.35,73.3979,-428.671,0,0
377057.975,72.5389,-425.186,0,0
378359.6,72.8227,-421.643,0,0
379661,73.8053,-418.882,0,0
380963,74.6858,-416.879,0,0
382264,75.3851,-415.226,0,0
383566,75.6762,-414.479,0,0
384868,74.6006,-413.501,0,0
386169,73.1408,-411.505,0,0
387471,71.8746,-408.646,0,0
388773,71.1425,-405.347,0,0
390074,71.0155,-401.731,0,0
391376,71.7387,-397.93,0,0
392677,73.3092,-394.648,0,0
393979,75.5117,-392.138,0,0
395280.7,77.9217,-390.732,0,0
396582.325,79.9499,-390.471,0,0
397883.95,80.9499,-390.992,0,0
399185.575,80.8015,-391.675,0,0
400006.6,80.0238,-391.899,0,0

File: sample_4.csv
Frequency (Hz),Impedance (ohms),Phase (Radians),Temperature (C),Humidity (%)
10000.0,266.003,-11843.3,0,0
11301.625,237.102,-10492.8,0,0
12603.25,214.445,-9413.75,0,0
13904.875,195.73,-8535.32,0,0
15206.5,183.109,-7812.55,0,0
16508.125,184.637,-7197.38,0,0
17809.75,157.766,-6692.56,0,0
19111.375,147.049,-6238.25,0,0
20413.0,142.993,-5839.52,0,0
21714.625,145.886,-5493.34,0,0
23016.25,126.93,-5195.11,0,0
24317.875,118.279,-4911.05,0,0
25619.5,114.237,-4658.07,0,0
26921.1,108.323,-4430.1,0,0
28222.7,120.876,-4222.82,0,0
29524.4,114.525,-4047.41,0,0
30826,100.549,-3876.92,0,0
32127.6,100.408,-3717.11,0,0
33429.2,91.4118,-3576.53,0,0
34730.9,86.5711,-3438.84,0,0
36032.5,83.0413,-3311.42,0,0
37334.1,80.9912,-3192.87,0,0
38635.7,78.4342,-3081.42,0,0
39937.4,78.0497,-2976.13,0,0
41239,81.0201,-2880.77,0,0
42540.6,79.8901,-2794.84,0,0
43842.225,75.0515,-2710.88,0,0
45143.85,72.3213,-2629.87,0,0
46445.475,71.6078,-2552.96,0,0
47747.1,70.9826,-2483.42,0,0
49048.725,67.1893,-2414.38,0,0
50350.35,65.6318,-2346.95,0,0
51651.975,65.1819,-2282.52,0,0
52953.6,67.1254,-2219.62,0,0
54255.225,74.7614,-2163.48,0,0
55556.85,72.7513,-2120.1,0,0
56858.475,66.6059,-2067.1,0,0
58160.1,67.5048,-2014.55,0,0
59461.7,71.6767,-1963.96,0,0
60763.3,81.426,-1926.54,0,0
62065,71.0265,-1893.46,0,0
63366.6,65.4468,-1847.63,0,0
64668.2,65.4287,-1804.51,0,0
65969.8,67.4105,-1764.3,0,0
67271.5,71.0199,-1728.08,0,0
68573.1,74.4486,-1699.28,0,0
69874.7,67.1532,-1669.48,0,0
71176.3,66.1491,-1635.01,0,0
72478,59.8838,-1604.01,0,0
73779.6,58.4904,-1567.45,0,0
75081.2,60.5814,-1534.89,0,0
76382.825,62.9932,-1506.11,0,0
77684.45,65.6535,-1478.05,0,0
78986.075,64.7038,-1455.76,0,0
80287.7,61.5787,-1429.11,0,0
81589.325,60.9633,-1403.04,0,0
82890.95,59.7502,-1378.06,0,0
84192.575,58.6047,-1353.3,0,0
85494.2,57.7848,-1329.09,0,0
86795.825,57.1452,-1305.42,0,0
88097.45,55.7535,-1282.99,0,0
89399.075,54.2328,-1258.7,0,0
90700.7,54.1823,-1235.74,0,0
92002.3,54.3378,-1212.65,0,0
93303.9,55.6848,-1191.9,0,0
94605.6,54.3286,-1171.63,0,0
95907.2,53.7108,-1149.31,0,0
97208.8,54.4817,-1127.76,0,0
98510.4,55.6549,-1106.51,0,0
99812.1,58.1836,-1085.89,0,0
101114,62.2304,-1067.06,0,0
102415,61.4247,-1052.58,0,0
103717,58.3883,-1030.47,0,0
105019,61.9843,-1006.78,0,0
106320.175,68.1347,-986.678,0,0
107621.8,74.4622,-968.565,0,0
108923.425,82.2802,-951.413,0,0
110225.05,90.1516,-938.127,0,0
111526.675,96.5644,-926.242,0,0
112828.3,102.381,-915.632,0,0
114129.925,106.695,-906.969,0,0
115431.55,109.361,-899.057,0,0
116733.175,109.472,-891.135,0,0
118034.8,107.273,-880.884,0,0
119336.425,108.696,-867.173,0,0
120638.05,113.728,-862.279,0,0
121939.675,106.684,-856.463,0,0
123241,101.5,-844.397,0,0
124543,98.5044,-832.028,0,0
125845,95.8598,-819.568,0,0
127146,92.8456,-808.518,0,0
128448,87.9762,-796.284,0,0
129749,81.8991,-781.989,0,0
131051,77.0746,-764.551,0,0
132353,74.4143,-746.051,0,0
133654,73.4401,-727.153,0,0
134956,73.9696,-708.176,0,0
136258,76.1953,-689.727,0,0
137559,79.2487,-672.146,0,0
138860.775,81.2485,-654.784,0,0
140162.4,84.3768,-636.085,0,0
141464.025,89.4119,-616.999,0,0
142765.65,95.4452,-598.939,0,0
144067.275,101.914,-580.903,0,0
145368.9,109.621,-562.293,0,0
146670.525,118.831,-543.73,0,0
147972.15,129.695,-525.734,0,0
149273.775,141.806,-507.306,0,0
150575.4,157.372,-489.503,0,0
151877.025,176.281,-473.725,0,0
153178.65,197.646,-461.906,0,0
154480,218.943,-456.506,0,0
155782,235.586,-452.953,0,0
157084,251.85,-449.96,0,0
158385,266.806,-445.462,0,0
159687,286.768,-442.804,0,0
160988,304.021,-448.683,0,0
162290,312.038,-456.662,0,0
163592,315.953,-455.565,0,0
164893,325.131,-447.647,0,0
166195,342.667,-442.839,0,0
167497,366.714,-441.474,0,0
168798,396.385,-457.069,0,0
170100,411.375,-487.369,0,0
171401.375,409.988,-523.969,0,0
172703.0,385.375,-550.431,0,0
174004.625,351.219,-556.828,0,0
175306.25,323.705,-545.264,0,0
176607.875,305.832,-524.597,0,0
177909.5,298.774,-500.847,0,0
179211.125,299.354,-480.448,0,0
180512.75,301.899,-462.5,0,0
181814.375,305.418,-445.676,0,0
183116.0,308.791,-428.372,0,0
184417.625,313.303,-407.763,0,0
185719.25,321.318,-384.756,0,0
187021,334.29,-359.062,0,0
188322,353.183,-332.647,0,0
189624,378.803,-306.265,0,0
190926,412.477,-281.197,0,0
192227,455.762,-261.011,0,0
193529,505.49,-249.996,0,0
194831,558.265,-247.18,0,0
196132,615.369,-252.023,0,0
197434,677.83,-266.795,0,0
198735,745.791,-298.635,0,0
200037,809.944,-355.052,0,0
201339,853.893,-432.45,0,0
202640.35,870.963,-517.436,0,0
203941.975,864.085,-593.73,0,0
205243.6,847.403,-662.403,0,0
206545.225,822.213,-723.353,0,0
207846.85,786.656,-780.412,0,0
209148.475,735.443,-826.811,0,0
210450.1,678.628,-849.973,0,0
211751.725,631.388,-857.12,0,0
213053.35,592.294,-854.779,0,0
214354.975,566.471,-848.085,0,0
215656.6,552.087,-847.599,0,0
216958.225,536.223,-856.128,0,0
218259.85,515.292,-865.272,0,0
219561,492.016,-870.423,0,0
220863,471.368,-875.669,0,0
222165,448.368,-880.89,0,0
223466,423.849,-882.57,0,0
224768,400.425,-883.597,0,0
226070,374.919,-884.223,0,0
227371,346.429,-879.694,0,0
228673,319.218,-870.546,0,0
229974,294.441,-855.34,0,0
231276,275.179,-836.633,0,0
232578,262.084,-818.384,0,0
233879,251.632,-801.353,0,0
235180.95,244.161,-785.507,0,0
236482.575,238.561,-771.334,0,0
237784.2,233.814,-757.865,0,0
239085.825,231.678,-745.484,0,0
240387.45,230.644,-736.194,0,0
241689.075,228.848,-729.424,0,0
242990.7,225.143,-723.755,0,0
244292.325,219.932,-717.689,0,0
245593.95,213.58,-710.579,0,0
246895.575,207.73,-700.873,0,0
248197.2,204.591,-690.861,0,0
249498.825,202.229,-682.787,0,0
250800,198.796,-674.871,0,0
252102,195.245,-667.419,0,0
253404,188.768,-658.546,0,0
254705,183.332,-644.333,0,0
256007,181.956,-627.954,0,0
257309,184.666,-610.014,0,0
258610,192.759,-593.034,0,0
259912,205.609,-577.551,0,0
261213,224.529,-566.481,0,0
262515,246.107,-564.28,0,0
263817,266.353,-568.882,0,0
265118,283.21,-578.843,0,0
266420,298.492,-595.767,0,0
267721.55,303.031,-619.717,0,0
269023.175,297.402,-639.317,0,0
270324.8,286.421,-656.082,0,0
271626.425,272.703,-663.095,0,0
272928.05,263.762,-668.909,0,0
274229.675,252.91,-677.051,0,0
275531.3,237.155,-684.179,0,0
276832.925,216.424,-684.836,0,0
278134.55,197.394,-675.933,0,0
279436.175,185.542,-662.248,0,0
280737.8,181.473,-648.595,0,0
282039.425,180.918,-639.884,0,0
283341,179.65,-633.228,0,0
284643,180.68,-628.254,0,0
285944,178.943,-626.578,0,0
287246,174.266,-623.966,0,0
288548,167.315,-616.368,0,0
289849,167.236,-602.953,0,0
291151,176.242,-593.257,0,0
292452,188.503,-592.233,0,0
293754,197.815,-600.013,0,0
295056,199.206,-612.883,0,0
296357,191.603,-623.87,0,0
297659,180.067,-628.844,0,0
298960.525,169.149,-628.371,0,0
300262.15,160.714,-626.347,0,0
301563.775,152.655,-623.737,0,0
302865.4,144.733,-619.867,0,0
304167.025,138.004,-614.571,0,0
305468.65,132.758,-608.753,0,0
306770.275,128.756,-602.583,0,0
308071.9,126.561,-597.375,0,0
309373.525,124.351,-593.493,0,0
310675.15,121.512,-590.164,0,0
311976.775,118.181,-586.528,0,0
313278.4,114.768,-582.242,0,0
314580,112.415,-577.428,0,0
315882,110.999,-573.032,0,0
317183,110.227,-569.909,0,0
318485,109.073,-567.813,0,0
319787,106.647,-567.019,0,0
321088,102.487,-565.925,0,0
322390,96.6334,-564.163,0,0
323691,89.6898,-559.381,0,0
324993,84.9015,-552.301,0,0
326295,81.9993,-545.522,0,0
327596,79.5226,-538.882,0,0
328898,77.8809,-531.761,0,0
330200,77.8579,-524.709,0,0
331501.125,79.1405,-519.028,0,0
332802.75,80.2022,-515.308,0,0
334104.375,79.9698,-512.209,0,0
335406.0,78.8269,-508.838,0,0
336707.625,77.2295,-504.677,0,0
338009.25,75.5795,-499.349,0,0
339310.875,75.125,-492.836,0,0
340612.5,76.5619,-486.571,0,0
341914.125,79.4014,-480.979,0,0
343215.75,83.6082,-477.185,0,0
344517.375,87.5907,-476.175,0,0
345819.0,89.5891,-476.63,0,0
347121,89.6051,-477.078,0,0
348422,88.4339,-476.965,0,0
349724,86.4788,-475.87,0,0
351025,84.2292,-473.758,0,0
352327,82.306,-470.628,0,0
353629,81.0835,-466.791,0,0
354930,81.1831,-462.861,0,0
356232,81.7416,-460.261,0,0
357534,81.543,-458.2,0,0
358835,80.4577,-456.13,0,0
360137,78.8063,-452.807,0,0
361438,78.234,-448.366,0,0
362740.1,78.7405,-444.251,0,0
364041.725,79.8139,-440.849,0,0
365343.35,80.4635,-438.105,0,0
366644.975,80.2914,-434.515,0,0
367946.6,81.3402,-429.777,0,0
369248.225,84.0982,-424.929,0,0
370549.85,88.9576,-421.527,0,0
371851.475,94.2569,-420.551,0,0
373153.1,99.1255,-422.124,0,0
374454.725,101.267,-425.925,0,0
375756.35,100.37,-428.407,0,0
377057.975,99.4698,-429.201,0,0
378359.6,98.6967,-430.064,0,0
379661,97.2468,-430.493,0,0
380963,96.0898,-430.292,0,0
382264,95.2175,-430.226,0,0
383566,94.7307,-430.684,0,0
384868,93.0345,-432.645,0,0
386169,88.7599,-433.874,0,0
387471,83.8482,-432.597,0,0
388773,79.772,-429.08,0,0
390074,78.1593,-424.794,0,0
391376,78.6309,-422.484,0,0
392677,77.7772,-422.694,0,0
393979,74.3266,-422.617,0,0
395280.7,69.6858,-420.309,0,0
396582.325,65.9406,-416.259,0,0
397883.95,63.3268,-411.51,0,0
399185.575,61.699,-406.674,0,0
400006.6,60.9065,-403.625,0,0