Folder: ML_Dmg_Mehdi_Dataset/Accelerated corrosion test data/2025-10-06_14-56-48 (part 3)

File: sample_6.csv
Frequency (Hz),Impedance (ohms),Phase (Radians),Temperature (C),Humidity (%)
10000.0,4273.14,-6340.99,0,0
11301.625,3650.5,-5997.03,0,0
12603.25,3152.91,-5661.38,0,0
13904.875,2746.68,-5351.14,0,0
15206.5,2412.67,-5057.5,0,0
16508.125,2136.61,-4788.26,0,0
17809.75,1906.14,-4540.18,0,0
19111.375,1712.2,-4310.99,0,0
20413.0,1544.72,-4102.84,0,0
21714.625,1401.28,-3909.56,0,0
23016.25,1282.18,-3726.93,0,0
24317.875,1174.89,-3571.18,0,0
25619.5,1079.47,-3420.16,0,0
26921.1,996.821,-3278.69,0,0
28222.7,925.372,-3149.5,0,0
29524.4,860.183,-3025.3,0,0
30826,804.248,-2913.53,0,0
32127.6,753.897,-2804.67,0,0
33429.2,715.378,-2706.74,0,0
34730.9,674.063,-2621.22,0,0
36032.5,635.765,-2540.16,0,0
37334.1,597.014,-2460.33,0,0
38635.7,563.259,-2381.39,0,0
39937.4,535.194,-2306.53,0,0
41239,509.531,-2237.5,0,0
42540.6,486.17,-2172.93,0,0
43842.225,464.952,-2107.57,0,0
45143.85,449.351,-2046.35,0,0
46445.475,438.238,-1992.37,0,0
47747.1,426.77,-1944.44,0,0
49048.725,415.582,-1903.57,0,0
50350.35,395.348,-1869.18,0,0
51651.975,371.999,-1825.04,0,0
52953.6,355.323,-1780.76,0,0
54255.225,337.582,-1739.35,0,0
55556.85,321.105,-1697.77,0,0
56858.475,308.547,-1652.23,0,0
58160.1,303.154,-1614.29,0,0
59461.7,293.461,-1581.93,0,0
60763.3,281.138,-1548.85,0,0
62065,268.247,-1513.2,0,0
63366.6,264.203,-1475.35,0,0
64668.2,257.91,-1450.5,0,0
65969.8,248.815,-1420.95,0,0
67271.5,237.359,-1392.03,0,0
68573.1,228.055,-1359.66,0,0
69874.7,221.868,-1327.36,0,0
71176.3,218.608,-1296.46,0,0
72478,217.973,-1267.79,0,0
73779.6,218.132,-1243.21,0,0
75081.2,216.643,-1220.13,0,0
76382.825,215.267,-1198.25,0,0
77684.45,213.969,-1177.32,0,0
78986.075,212.176,-1158.2,0,0
80287.7,209.492,-1139.95,0,0
81589.325,205.786,-1122.09,0,0
82890.95,201.253,-1103.82,0,0
84192.575,196.402,-1084.49,0,0
85494.2,193.299,-1063.94,0,0
86795.825,191.936,-1044.87,0,0
88097.45,190.248,-1027.08,0,0
89399.075,189.457,-1008.8,0,0
90700.7,189.904,-992.935,0,0
92002.3,188.057,-978.629,0,0
93303.9,186.625,-962.47,0,0
94605.6,186.017,-945.269,0,0
95907.2,187.606,-931.647,0,0
97208.8,187.153,-920.098,0,0
98510.4,186.39,-905.284,0,0
99812.1,191.349,-894.698,0,0
101114,188.803,-889.623,0,0
102415,184.605,-880.113,0,0
103717,178.69,-873.536,0,0
105019,166.749,-863.585,0,0
106320.175,154.749,-843.588,0,0
107621.8,152.355,-820.57,0,0
108923.425,154.83,-802.027,0,0
110225.05,157.152,-785.804,0,0
111526.675,160.787,-770.761,0,0
112828.3,165.038,-757.892,0,0
114129.925,169.603,-747.284,0,0
115431.55,173.385,-737.759,0,0
116733.175,177.869,-730.464,0,0
118034.8,176.239,-726.074,0,0
119336.425,173.555,-715.286,0,0
120638.05,178.532,-703.258,0,0
121939.675,179.696,-703.206,0,0
123241,175.071,-695.756,0,0
124543,172.547,-687.583,0,0
125845,169.795,-678.766,0,0
127146,166.572,-668.852,0,0
128448,165.458,-657.058,0,0
129749,167.737,-648.338,0,0
131051,167.435,-642.136,0,0
132353,165.176,-635.809,0,0
133654,161.205,-628.895,0,0
134956,155.778,-619.768,0,0
136258,150.989,-608.123,0,0
137559,147.835,-595.279,0,0
138860.775,145.887,-581.862,0,0
140162.4,145.643,-568.359,0,0
141464.025,146.82,-554.889,0,0
142765.65,148.46,-542.776,0,0
144067.275,150.72,-530.435,0,0
145368.9,155.372,-519.615,0,0
146670.525,157.325,-511.438,0,0
147972.15,157.188,-501.969,0,0
149273.775,157.35,-490.435,0,0
150575.4,157.884,-476.653,0,0
151877.025,161.518,-460.373,0,0
153178.65,172.27,-447.182,0,0
154480,179.691,-441.02,0,0
155782,184.561,-430.661,0,0
157084,195.462,-423.126,0,0
158385,200.575,-421.442,0,0
159687,202.018,-416.796,0,0
160988,203.56,-410.085,0,0
162290,204.672,-403.961,0,0
163592,204.892,-395.047,0,0
164893,204.675,-385.115,0,0
166195,206.617,-372.014,0,0
167497,210.231,-360.337,0,0
168798,214.598,-347.96,0,0
170100,219.743,-335.928,0,0
171401.375,224.672,-324.011,0,0
172703.0,229.869,-310.921,0,0
174004.625,235.269,-297.571,0,0
175306.25,240.533,-281.865,0,0
176607.875,247.87,-263.421,0,0
177909.5,258.599,-242.928,0,0
179211.125,274.034,-221.17,0,0
180512.75,295.779,-201.498,0,0
181814.375,320.193,-186.498,0,0
183116.0,345.37,-175.765,0,0
184417.625,369.925,-167.207,0,0
185719.25,392.314,-161.758,0,0
187021,410.097,-154.784,0,0
188322,425.913,-138.624,0,0
189624,450.656,-111.29,0,0
190926,493.777,-80.3504,0,0
192227,556.552,-60.2213,0,0
193529,626.799,-54.5528,0,0
194831,708.146,-64.2992,0,0
196132,790.104,-99.0767,0,0
197434,863.281,-152.904,0,0
198735,925.965,-219.464,0,0
200037,979.127,-301.519,0,0
201339,1018.69,-398.13,0,0
202640.35,1033.63,-514.502,0,0
203941.975,1006.86,-627.564,0,0
205243.6,957.169,-719.419,0,0
206545.225,892.779,-790.016,0,0
207846.85,824.882,-838.556,0,0
209148.475,761.535,-869.614,0,0
210450.1,706.828,-893.101,0,0
211751.725,651.233,-918.958,0,0
213053.35,584.412,-933.304,0,0
214354.975,521.809,-929.884,0,0
215656.6,468.753,-916.268,0,0
216958.225,425.204,-898.529,0,0
218259.85,388.489,-879.232,0,0
219561,357.289,-858.441,0,0
220863,330.786,-837.202,0,0
222165,307.783,-815.405,0,0
223466,289.193,-792.353,0,0
224768,275.793,-768.176,0,0
226070,269.006,-745.592,0,0
227371,268.488,-728.39,0,0
228673,268.13,-719.75,0,0
229974,262.069,-714.824,0,0
231276,251.379,-708.124,0,0
232578,240.283,-697.379,0,0
233879,231.131,-683.881,0,0
235180.95,224.724,-669.662,0,0
236482.575,220.795,-655.368,0,0
237784.2,218.766,-642.048,0,0
239085.825,218.209,-629.175,0,0
240387.45,219.044,-617.467,0,0
241689.075,220.823,-606.428,0,0
242990.7,223.843,-596.063,0,0
244292.325,228.065,-586.299,0,0
245593.95,233.641,-577.178,0,0
246895.575,241.555,-568.638,0,0
248197.2,252.762,-562.663,0,0
249498.825,264.551,-561.602,0,0
250800,274.728,-562.306,0,0
252102,288.209,-564.177,0,0
253404,303.936,-574.243,0,0
254705,314.354,-593.182,0,0
256007,315.474,-616.123,0,0
257309,307.288,-637.352,0,0
258610,293.44,-653.845,0,0
259912,276.268,-665.397,0,0
261213,257.855,-672.187,0,0
262515,239.616,-673.959,0,0
263817,223.467,-672.744,0,0
265118,208.651,-669.935,0,0
266420,195.495,-665.49,0,0
267721.55,183.626,-660.288,0,0
269023.175,173.167,-654.503,0,0
270324.8,163.225,-648.21,0,0
271626.425,154.404,-641.762,0,0
272928.05,146.256,-634.913,0,0
274229.675,138.872,-627.903,0,0
275531.3,132.221,-620.505,0,0
276832.925,126.326,-613.061,0,0
278134.55,121.196,-605.635,0,0
279436.175,116.591,-597.943,0,0
280737.8,113.295,-590.399,0,0
282039.425,110.816,-583.696,0,0
283341,108.144,-577.778,0,0
284643,105.805,-571.53,0,0
285944,103.981,-565.798,0,0
287246,102.404,-560.998,0,0
288548,100.206,-556.152,0,0
289849,98.2456,-551.249,0,0
291151,96.7469,-546.601,0,0
292452,95.1925,-542.355,0,0
293754,93.5332,-538.687,0,0
295056,91.073,-535.209,0,0
296357,88.0968,-531.069,0,0
297659,85.1239,-525.955,0,0
298960.525,83.4526,-520.028,0,0
300262.15,83.0059,-514.978,0,0
301563.775,82.5239,-510.869,0,0
302865.4,81.7344,-506.967,0,0
304167.025,80.7872,-503.158,0,0
305468.65,80.0478,-499.147,0,0
306770.275,79.9764,-495.587,0,0
308071.9,79.5706,-493.04,0,0
309373.525,78.4446,-490.437,0,0
310675.15,77.2687,-487.737,0,0
311976.775,75.7939,-484.982,0,0
313278.4,74.1547,-482.112,0,0
314580,72.4884,-478.952,0,0
315882,71.0747,-475.725,0,0
317183,69.6358,-472.496,0,0
318485,68.2363,-469.404,0,0
319787,66.7682,-466.167,0,0
321088,65.2297,-462.736,0,0
322390,64.0093,-459.244,0,0
323691,63.0037,-455.795,0,0
324993,62.0055,-452.56,0,0
326295,60.8678,-449.192,0,0
327596,59.8831,-445.935,0,0
328898,58.9278,-442.5,0,0
330200,58.0564,-439.179,0,0
331501.125,57.2579,-435.821,0,0
332802.75,56.4975,-432.482,0,0
334104.375,55.8812,-429.052,0,0
335406.0,55.4756,-425.684,0,0
336707.625,55.1109,-422.539,0,0
338009.25,54.7629,-419.45,0,0
339310.875,54.4096,-416.405,0,0
340612.5,54.0667,-413.316,0,0
341914.125,53.9797,-410.226,0,0
343215.75,54.0808,-407.377,0,0
344517.375,54.2021,-405.19,0,0
345819.0,53.4816,-402.89,0,0
347121,52.7223,-400.105,0,0
348422,52.2802,-397.182,0,0
349724,52.0428,-394.279,0,0
351025,51.8697,-391.408,0,0
352327,51.8192,-388.624,0,0
353629,51.8918,-386.04,0,0
354930,51.8116,-383.62,0,0
356232,51.6805,-381.122,0,0
357534,51.6315,-378.526,0,0
358835,51.7373,-376.066,0,0
360137,51.8399,-373.865,0,0
361438,51.779,-371.824,0,0
362740.1,51.4902,-369.726,0,0
364041.725,51.1092,-367.482,0,0
365343.35,50.7676,-365.082,0,0
366644.975,50.5537,-362.653,0,0
367946.6,50.412,-360.261,0,0
369248.225,50.2608,-357.869,0,0
370549.85,50.2674,-355.465,0,0
371851.475,50.3791,-353.034,0,0
373153.1,50.6857,-350.919,0,0
374454.725,50.9026,-349.296,0,0
375756.35,50.428,-347.687,0,0
377057.975,49.824,-345.715,0,0
378359.6,49.2728,-343.554,0,0
379661,48.6152,-341.273,0,0
380963,48.0391,-338.744,0,0
382264,47.6826,-335.874,0,0
383566,47.962,-333.271,0,0
384868,47.9693,-331.285,0,0
386169,47.6713,-329.061,0,0
387471,47.2884,-326.588,0,0
388773,46.9706,-324.021,0,0
390074,46.819,-321.426,0,0
391376,46.7517,-318.792,0,0
392677,46.712,-316.166,0,0
393979,46.7048,-313.514,0,0
395280.7,46.777,-310.856,0,0
396582.325,46.8993,-308.172,0,0
397883.95,47.0643,-305.462,0,0
399185.575,47.304,-302.77,0,0
400006.6,47.446,-301.099,0,0

File: sample_7.csv
Frequency (Hz),Impedance (ohms),Phase (Radians),Temperature (C),Humidity (%)
10000.0,276.446,-12034.1,0,0
11301.625,248.596,-10645.7,0,0
12603.25,259.44,-9604.14,0,0
13904.875,210.303,-8710.18,0,0
15206.5,198.036,-7975.18,0,0
16508.125,173.214,-7338.73,0,0
17809.75,171.15,-6785.36,0,0
19111.375,185.002,-6352.11,0,0
20413.0,169.217,-5950.81,0,0
21714.625,155.155,-5611.7,0,0
23016.25,131.584,-5293.21,0,0
24317.875,123.635,-5001.97,0,0
25619.5,119.574,-4739.28,0,0
26921.1,124.137,-4495.81,0,0
28222.7,180.776,-4293.22,0,0
29524.4,135.305,-4149.17,0,0
30826,134.744,-3969.23,0,0
32127.6,117.901,-3824.02,0,0
33429.2,102.473,-3673.06,0,0
34730.9,93.1666,-3529.42,0,0
36032.5,89.0136,-3396.45,0,0
37334.1,86.7219,-3273.55,0,0
38635.7,86.9488,-3157.14,0,0
39937.4,97.5283,-3057.08,0,0
41239,86.9405,-2969.76,0,0
42540.6,80.4629,-2874.53,0,0
43842.225,80.0273,-2786.49,0,0
45143.85,80.5456,-2709.22,0,0
46445.475,77.8282,-2635.89,0,0
47747.1,71.1355,-2560.76,0,0
49048.725,68.3851,-2490.92,0,0
50350.35,66.4606,-2424.25,0,0
51651.975,64.8627,-2360.99,0,0
52953.6,63.9245,-2300.59,0,0
54255.225,62.6422,-2244.11,0,0
55556.85,61.4657,-2189.5,0,0
56858.475,60.6528,-2137.37,0,0
58160.1,59.9001,-2087.31,0,0
59461.7,60.0357,-2040.12,0,0
60763.3,59.4597,-1996.44,0,0
62065,57.4457,-1953.26,0,0
63366.6,56.3082,-1910.82,0,0
64668.2,55.3684,-1870.34,0,0
65969.8,55.4116,-1832.17,0,0
67271.5,53.7127,-1795.46,0,0
68573.1,52.5435,-1758.78,0,0
69874.7,52.0259,-1723.69,0,0
71176.3,51.7108,-1690.44,0,0
72478,50.5791,-1658.07,0,0
73779.6,49.861,-1626.4,0,0
75081.2,49.3096,-1595.69,0,0
76382.825,48.8244,-1566.08,0,0
77684.45,48.4712,-1537.29,0,0
78986.075,48.1762,-1509.43,0,0
80287.7,48.0022,-1482.52,0,0
81589.325,47.7491,-1456.3,0,0
82890.95,47.6566,-1430.8,0,0
84192.575,47.5714,-1405.77,0,0
85494.2,47.7446,-1381.83,0,0
86795.825,47.7431,-1358.56,0,0
88097.45,48.0257,-1335.71,0,0
89399.075,47.9087,-1313.59,0,0
90700.7,48.1574,-1291.59,0,0
92002.3,48.6067,-1270.37,0,0
93303.9,48.9328,-1249.29,0,0
94605.6,51.511,-1230.06,0,0
95907.2,50.2644,-1211.91,0,0
97208.8,50.0791,-1192.22,0,0
98510.4,50.8925,-1172.9,0,0
99812.1,50.5134,-1154.42,0,0
101114,51.9919,-1135.56,0,0
102415,53.5645,-1117.32,0,0
103717,56.2414,-1100.69,0,0
105019,57.3494,-1086.06,0,0
106320.175,57.0705,-1069.82,0,0
107621.8,58.2195,-1053.54,0,0
108923.425,59.1068,-1038.01,0,0
110225.05,59.3834,-1021.49,0,0
111526.675,62.4655,-1004.58,0,0
112828.3,66.396,-988.712,0,0
114129.925,71.5447,-974.98,0,0
115431.55,76.8701,-962.434,0,0
116733.175,84.4592,-953.467,0,0
118034.8,87.0087,-947.758,0,0
119336.425,89.4607,-944.398,0,0
120638.05,83.4391,-942.357,0,0
121939.675,73.8099,-931.631,0,0
123241,67.8245,-918.781,0,0
124543,63.3926,-904.484,0,0
125845,59.7217,-890.894,0,0
127146,56.5715,-876.163,0,0
128448,55.1145,-861.184,0,0
129749,54.1472,-846.922,0,0
131051,53.1115,-832.246,0,0
132353,52.3736,-817.204,0,0
133654,53.151,-801.568,0,0
134956,56.5393,-786.821,0,0
136258,61.4374,-774.253,0,0
137559,62.0903,-766.383,0,0
138860.775,60.2908,-754.732,0,0
140162.4,60.513,-741.167,0,0
141464.025,60.7482,-728.245,0,0
142765.65,61.8486,-714.185,0,0
144067.275,64.2257,-701.213,0,0
145368.9,65.61,-688.577,0,0
146670.525,66.9218,-675.174,0,0
147972.15,68.6621,-662.007,0,0
149273.775,69.8188,-648.686,0,0
150575.4,70.9519,-633.093,0,0
151877.025,73.6983,-615.753,0,0
153178.65,78.9958,-598.059,0,0
154480,86.0867,-580.421,0,0
155782,95.9338,-563.574,0,0
157084,107.673,-548.891,0,0
158385,119.725,-537.68,0,0
159687,126.847,-528.478,0,0
160988,130.812,-511.909,0,0
162290,142.317,-487.774,0,0
163592,162.453,-464.803,0,0
164893,188.947,-446.623,0,0
166195,220.324,-428.176,0,0
167497,268.082,-418.713,0,0
168798,320.831,-429.68,0,0
170100,363.993,-460.598,0,0
171401.375,394.819,-509.701,0,0
172703.0,403.817,-566.375,0,0
174004.625,377.618,-616.521,0,0
175306.25,335.694,-631.612,0,0
176607.875,319.825,-619.843,0,0
177909.5,328.777,-624.759,0,0
179211.125,323.018,-663.938,0,0
180512.75,290.697,-681.936,0,0
181814.375,250.806,-692.878,0,0
183116.0,208.802,-680.057,0,0
184417.625,183.172,-655.403,0,0
185719.25,167.423,-633.675,0,0
187021,154.726,-606.578,0,0
188322,153.282,-583.198,0,0
189624,146.072,-567.524,0,0
190926,139.941,-543.487,0,0
192227,140.855,-518.392,0,0
193529,144.176,-493.574,0,0
194831,152.318,-469.239,0,0
196132,163.973,-448.315,0,0
197434,176.54,-429.111,0,0
198735,189.622,-410.253,0,0
200037,205.432,-389.639,0,0
201339,226.78,-369.947,0,0
202640.35,254.158,-351.466,0,0
203941.975,287.627,-339.116,0,0
205243.6,324.214,-334.471,0,0
206545.225,362.334,-343.411,0,0
207846.85,384.214,-353.845,0,0
209148.475,417.005,-350.631,0,0
210450.1,469.993,-370.782,0,0
211751.725,504.155,-422.47,0,0
213053.35,510.434,-471.743,0,0
214354.975,502.975,-514.902,0,0
215656.6,487.121,-543.101,0,0
216958.225,474.644,-570.23,0,0
218259.85,451.156,-592.882,0,0
219561,420.41,-603.19,0,0
220863,395.468,-596.019,0,0
222165,384.706,-582.071,0,0
223466,384.777,-571.496,0,0
224768,389.678,-564.004,0,0
226070,403.638,-558.172,0,0
227371,421.081,-566.66,0,0
228673,438.413,-584.566,0,0
229974,445.767,-614.702,0,0
231276,440.252,-648.965,0,0
232578,423.921,-678.25,0,0
233879,396.647,-708.013,0,0
235180.95,351.618,-719.177,0,0
236482.575,316.938,-710.228,0,0
237784.2,288.882,-698.605,0,0
239085.825,269.963,-675.427,0,0
240387.45,269.026,-657.814,0,0
241689.075,262.372,-654.233,0,0
242990.7,249.046,-643.08,0,0
244292.325,243.611,-623.831,0,0
245593.95,251.303,-610.801,0,0
246895.575,255.31,-606.844,0,0
248197.2,256.91,-602.6,0,0
249498.825,259.997,-598.586,0,0
250800,263.362,-598.365,0,0
252102,265.917,-599.928,0,0
253404,266.235,-604.427,0,0
254705,261.42,-610.213,0,0
256007,252.821,-612.172,0,0
257309,243.291,-609.648,0,0
258610,235.401,-602.486,0,0
259912,231.496,-594.425,0,0
261213,229.635,-583.418,0,0
262515,236.421,-572.131,0,0
263817,248.292,-569.621,0,0
265118,256.254,-575.022,0,0
266420,260,-580.423,0,0
267721.55,262.84,-588.026,0,0
269023.175,261.202,-595.603,0,0
270324.8,261.09,-600.547,0,0
271626.425,264.67,-609.33,0,0
272928.05,265.379,-632.982,0,0
274229.675,243.837,-658.546,0,0
275531.3,207.995,-667.566,0,0
276832.925,173.772,-657.7,0,0
278134.55,150.356,-635.548,0,0
279436.175,140.481,-612.38,0,0
280737.8,138.207,-593.064,0,0
282039.425,138.141,-580.584,0,0
283341,135.145,-568.292,0,0
284643,135.392,-552.932,0,0
285944,140.162,-540.805,0,0
287246,144.936,-532.295,0,0
288548,148.122,-524.305,0,0
289849,152.538,-515.114,0,0
291151,159.492,-506.69,0,0
292452,167.686,-501.195,0,0
293754,175.412,-496.832,0,0
295056,183.688,-492.758,0,0
296357,194.492,-489.446,0,0
297659,207.413,-489.535,0,0
298960.525,220.059,-493.752,0,0
300262.15,233.802,-500.261,0,0
301563.775,248.649,-514.027,0,0
302865.4,258.122,-539.184,0,0
304167.025,251.108,-566.531,0,0
305468.65,235.029,-586.473,0,0
306770.275,214.11,-598.226,0,0
308071.9,193.624,-601.676,0,0
309373.525,175.12,-599.725,0,0
310675.15,160.575,-593.858,0,0
311976.775,149.85,-587.358,0,0
313278.4,140.512,-581.23,0,0
314580,132.144,-574.094,0,0
315882,126.039,-565.786,0,0
317183,122.358,-558.462,0,0
318485,119.193,-552.451,0,0
319787,117.023,-546.481,0,0
321088,115.741,-542.035,0,0
322390,113.902,-538.857,0,0
323691,111.204,-535.966,0,0
324993,107.986,-532.511,0,0
326295,105.617,-528.854,0,0
327596,103.187,-526.057,0,0
328898,100.028,-523.34,0,0
330200,96.7092,-520.032,0,0
331501.125,93.6078,-517.109,0,0
332802.75,89.3152,-514.249,0,0
334104.375,84.4571,-509.93,0,0
335406.0,80.2439,-504.705,0,0
336707.625,76.5031,-498.646,0,0
338009.25,73.7209,-491.998,0,0
339310.875,71.9187,-485.628,0,0
340612.5,70.5858,-479.221,0,0
341914.125,69.9059,-472.795,0,0
343215.75,70.0355,-466.673,0,0
344517.375,70.7865,-461.084,0,0
345819.0,71.9908,-456.369,0,0
347121,72.9363,-452.686,0,0
348422,72.814,-449.398,0,0
349724,72.2371,-445.278,0,0
351025,71.8168,-440.662,0,0
352327,72.3063,-435.269,0,0
353629,73.9945,-430.552,0,0
354930,75.9518,-426.956,0,0
356232,77.7363,-424.478,0,0
357534,78.0005,-422.61,0,0
358835,76.9653,-419.627,0,0
360137,76.5575,-414.971,0,0
361438,77.449,-410.043,0,0
362740.1,79.3254,-405.672,0,0
364041.725,81.4144,-401.827,0,0
365343.35,84.0578,-398.429,0,0
366644.975,86.7789,-396.134,0,0
367946.6,89.0201,-394.269,0,0
369248.225,91.2384,-393.206,0,0
370549.85,92.0112,-393.223,0,0
371851.475,90.5144,-391.899,0,0
373153.1,89.6675,-388.148,0,0
374454.725,90.3096,-384.131,0,0
375756.35,91.7283,-380.34,0,0
377057.975,93.4465,-377.038,0,0
378359.6,95.0858,-373.474,0,0
379661,97.8167,-369.921,0,0
380963,100.675,-367.232,0,0
382264,103.462,-364.527,0,0
383566,106.928,-362.169,0,0
384868,110.219,-360.437,0,0
386169,113.377,-359.018,0,0
387471,116.457,-357.575,0,0
388773,119.542,-355.785,0,0
390074,123.864,-354.281,0,0
391376,128.172,-353.731,0,0
392677,132.406,-353.488,0,0
393979,136.93,-353.515,0,0
395280.7,142.212,-353.923,0,0
396582.325,148.522,-355.5,0,0
397883.95,155.362,-359.99,0,0
399185.575,160.33,-367.519,0,0
400006.6,161.759,-373.398,0,0