Folder: ML_Dmg_Mehdi_Dataset/Accelerated corrosion test data/2025-10-15_18-00-03

Note: README.md
# ML_Dmg_Mehdi_Dataset

File: sample_1.csv
Frequency (Hz),Impedance (ohms),Phase (Radians),Temperature (C),Humidity (%)
10000.0,246.518,-12199.6,0,0
11301.625,222.06,-10805.2,0,0
12603.25,196.456,-9706.13,0,0
13904.875,182.086,-8783.11,0,0
15206.5,186.141,-8049.65,0,0
16508.125,157.369,-7425.81,0,0
17809.75,147.42,-6890.66,0,0
19111.375,137.615,-6421.77,0,0
20413.0,156.857,-5978.88,0,0
21714.625,136.6,-5661.42,0,0
23016.25,122.475,-5359.73,0,0
24317.875,112.68,-5067.15,0,0
25619.5,105.33,-4802.83,0,0
26921.1,114.415,-4554.08,0,0
28222.7,110.517,-4350.27,0,0
29524.4,106.748,-4184.42,0,0
30826,100.273,-3997.3,0,0
32127.6,97.8949,-3839.84,0,0
33429.2,88.9069,-3695.97,0,0
34730.9,81.9494,-3553.87,0,0
36032.5,77.626,-3423.02,0,0
37334.1,75.2036,-3301.02,0,0
38635.7,74.4269,-3187.44,0,0
39937.4,71.138,-3080.58,0,0
41239,72.1142,-2981.75,0,0
42540.6,70.357,-2889.65,0,0
43842.225,67.6097,-2802.98,0,0
45143.85,68.4165,-2721.51,0,0
46445.475,65.4292,-2644.98,0,0
47747.1,63.8747,-2571.3,0,0
49048.725,61.4055,-2501.06,0,0
50350.35,59.8853,-2434.73,0,0
51651.975,58.5212,-2371.27,0,0
52953.6,57.6958,-2310.29,0,0
54255.225,56.5524,-2253.31,0,0
55556.85,55.7863,-2197.82,0,0
56858.475,55.3948,-2144.99,0,0
58160.1,54.446,-2094.28,0,0
59461.7,54.8071,-2046.34,0,0
60763.3,54.3916,-2000.37,0,0
62065,52.9787,-1956.6,0,0
63366.6,52.4056,-1912.98,0,0
64668.2,52.8839,-1870.87,0,0
65969.8,54.9754,-1833.06,0,0
67271.5,53.6816,-1796.59,0,0
68573.1,53.1678,-1760.93,0,0
69874.7,52.1105,-1727.04,0,0
71176.3,50.4512,-1692.6,0,0
72478,48.3911,-1658.81,0,0
73779.6,47.9842,-1625.38,0,0
75081.2,48.5128,-1593.12,0,0
76382.825,49.1175,-1562.16,0,0
77684.45,50.2497,-1532.76,0,0
78986.075,51.821,-1505.29,0,0
80287.7,51.129,-1478.82,0,0
81589.325,50.5946,-1450.92,0,0
82890.95,51.239,-1424.05,0,0
84192.575,52.6716,-1398.05,0,0
85494.2,54.9877,-1373.34,0,0
86795.825,55.9255,-1350.31,0,0
88097.45,56.1753,-1327.02,0,0
89399.075,58.0398,-1302.33,0,0
90700.7,61.2447,-1279.1,0,0
92002.3,67.8229,-1258.04,0,0
93303.9,75.013,-1241.24,0,0
94605.6,73.7359,-1234.24,0,0
95907.2,66.9348,-1215.44,0,0
97208.8,64.7356,-1194.85,0,0
98510.4,64.2015,-1174.08,0,0
99812.1,63.2486,-1154.55,0,0
101114,63.2712,-1134.51,0,0
102415,63.3785,-1112.93,0,0
103717,68.2652,-1091.6,0,0
105019,75.2407,-1074.26,0,0
106320.175,81.6202,-1058.05,0,0
107621.8,88.1968,-1045.88,0,0
108923.425,92.2773,-1035.36,0,0
110225.05,94.0523,-1027.2,0,0
111526.675,93.9993,-1014.65,0,0
112828.3,95.9477,-1004.99,0,0
114129.925,94.5466,-996.904,0,0
115431.55,91.0807,-987.039,0,0
116733.175,86.5153,-974.707,0,0
118034.8,82.4198,-960.222,0,0
119336.425,80.8803,-944.553,0,0
120638.05,81.396,-930.16,0,0
121939.675,80.4171,-917.694,0,0
123241,79.0707,-903.333,0,0
124543,78.9095,-888.297,0,0
125845,79.7807,-873.628,0,0
127146,80.9075,-859.171,0,0
128448,83.0826,-844.775,0,0
129749,85.6481,-830.84,0,0
131051,90.6155,-817.666,0,0
132353,94.8546,-807.42,0,0
133654,97.5269,-796.985,0,0
134956,100.214,-786.439,0,0
136258,102.969,-775.688,0,0
137559,107.734,-765.951,0,0
138860.775,109.799,-759.669,0,0
140162.4,109.556,-751.052,0,0
141464.025,109.432,-740.8,0,0
142765.65,110.043,-729.874,0,0
144067.275,111.539,-718.44,0,0
145368.9,114.054,-707.341,0,0
146670.525,116.853,-697.421,0,0
147972.15,119.137,-688.484,0,0
149273.775,120.715,-677.436,0,0
150575.4,122.801,-669.255,0,0
151877.025,121.342,-657.729,0,0
153178.65,121.57,-642.513,0,0
154480,125.959,-625.824,0,0
155782,133.472,-609.309,0,0
157084,145.837,-594.725,0,0
158385,158.41,-585.737,0,0
159687,168.15,-574.802,0,0
160988,186.474,-564.262,0,0
162290,205.927,-564.485,0,0
163592,217.169,-567.649,0,0
164893,228.789,-569.883,0,0
166195,241.136,-576.532,0,0
167497,246.377,-587.914,0,0
168798,244.267,-599.599,0,0
170100,234.443,-605.359,0,0
171401.375,226.076,-602.278,0,0
172703.0,222.836,-596.908,0,0
174004.625,219.119,-592.572,0,0
175306.25,217.925,-586.491,0,0
176607.875,218.087,-583.18,0,0
177909.5,217.15,-580.146,0,0
179211.125,212.878,-578.612,0,0
180512.75,205.987,-574.484,0,0
181814.375,198.966,-565.968,0,0
183116.0,192.865,-555.204,0,0
184417.625,187.859,-541.553,0,0
185719.25,186.674,-524.998,0,0
187021,188.158,-510.055,0,0
188322,191.75,-495.08,0,0
189624,195.717,-480.61,0,0
190926,200.203,-465.548,0,0
192227,205.819,-448.97,0,0
193529,214.655,-431.791,0,0
194831,225.164,-414.895,0,0
196132,238.59,-397.299,0,0
197434,254.843,-379.63,0,0
198735,275.313,-363.179,0,0
200037,297.123,-348.23,0,0
201339,324.241,-332.195,0,0
202640.35,360.12,-317.937,0,0
203941.975,403.537,-312.755,0,0
205243.6,455.16,-322.187,0,0
206545.225,498.807,-351.314,0,0
207846.85,526.698,-390.327,0,0
209148.475,539.531,-430.157,0,0
210450.1,537.199,-466.123,0,0
211751.725,526.51,-483.132,0,0
213053.35,525.007,-486.237,0,0
214354.975,537.656,-493.673,0,0
215656.6,550.431,-507.294,0,0
216958.225,560.982,-523.504,0,0
218259.85,573.456,-539.425,0,0
219561,589.476,-556.928,0,0
220863,609.463,-584.064,0,0
222165,626.959,-623.47,0,0
223466,631.091,-674,0,0
224768,620.218,-723.818,0,0
226070,597.95,-770.535,0,0
227371,566.262,-811.486,0,0
228673,522.861,-844.511,0,0
229974,475.381,-860.929,0,0
231276,431.595,-864.39,0,0
232578,395.625,-860.123,0,0
233879,367.399,-854.193,0,0
235180.95,343.021,-849.24,0,0
236482.575,317.994,-844.647,0,0
237784.2,294.056,-837.107,0,0
239085.825,272.093,-827.369,0,0
240387.45,252.819,-815.696,0,0
241689.075,236.176,-804.02,0,0
242990.7,222.102,-791.444,0,0
244292.325,209.839,-780.052,0,0
245593.95,198.047,-769.238,0,0
246895.575,186.351,-757.667,0,0
248197.2,176.297,-744.783,0,0
249498.825,168.106,-732.25,0,0
250800,161.077,-719.883,0,0
252102,154.916,-707.611,0,0
253404,149.413,-695.191,0,0
254705,145.636,-682.203,0,0
256007,143.68,-670.074,0,0
257309,142.334,-658.476,0,0
258610,141.857,-646.961,0,0
259912,143.665,-635.094,0,0
261213,147.996,-625.344,0,0
262515,153.184,-618.019,0,0
263817,158.792,-612.938,0,0
265118,164.668,-609.991,0,0
266420,171.15,-610.963,0,0
267721.55,173.262,-617.145,0,0
269023.175,168.309,-623.347,0,0
270324.8,158.103,-624.645,0,0
271626.425,148.09,-619.179,0,0
272928.05,141.959,-610.175,0,0
274229.675,139.995,-601.035,0,0
275531.3,140.215,-593.571,0,0
276832.925,141.231,-587.324,0,0
278134.55,143.433,-582.565,0,0
279436.175,145.346,-580.238,0,0
280737.8,145.793,-579.033,0,0
282039.425,144.524,-578.561,0,0
283341,141.145,-576.871,0,0
284643,137.934,-573.057,0,0
285944,135.585,-569.363,0,0
287246,131.369,-564.983,0,0
288548,128.617,-556.345,0,0
289849,130.997,-548.29,0,0
291151,134.172,-544.289,0,0
292452,135.813,-541.983,0,0
293754,134.712,-539.103,0,0
295056,133.598,-533,0,0
296357,136.343,-525.375,0,0
297659,141.53,-520.697,0,0
298960.525,146.413,-517.264,0,0
300262.15,151.708,-514.829,0,0
301563.775,157.94,-513.113,0,0
302865.4,165.264,-514.738,0,0
304167.025,170.363,-518.492,0,0
305468.65,174.277,-522.674,0,0
306770.275,177.666,-528.429,0,0
308071.9,178.518,-536.034,0,0
309373.525,176.399,-542.273,0,0
310675.15,174.438,-548.216,0,0
311976.775,170.621,-555.203,0,0
313278.4,163.34,-561.284,0,0
314580,154.97,-563.95,0,0
315882,147.369,-565.286,0,0
317183,139.183,-565.455,0,0
318485,131.229,-564.199,0,0
319787,123.686,-561.791,0,0
321088,116.605,-558.152,0,0
322390,110.52,-553.438,0,0
323691,105.795,-547.816,0,0
324993,102.88,-542.357,0,0
326295,101.104,-537.669,0,0
327596,99.9666,-534.134,0,0
328898,98.5928,-531.434,0,0
330200,96.875,-529.553,0,0
331501.125,94.3903,-528.044,0,0
332802.75,91.1282,-526.314,0,0
334104.375,87.527,-524.003,0,0
335406.0,83.6356,-521.067,0,0
336707.625,80.0936,-517.572,0,0
338009.25,76.8866,-513.761,0,0
339310.875,73.9138,-509.665,0,0
340612.5,71.426,-505.434,0,0
341914.125,69.2212,-501.378,0,0
343215.75,67.0757,-497.443,0,0
344517.375,64.8611,-493.327,0,0
345819.0,62.8034,-489.002,0,0
347121,60.9792,-484.472,0,0
348422,59.5757,-479.633,0,0
349724,58.6733,-475.048,0,0
351025,57.9959,-470.565,0,0
352327,57.4798,-466.22,0,0
353629,57.2296,-462.115,0,0
354930,56.9141,-458.09,0,0
356232,56.8931,-454.052,0,0
357534,56.938,-450.251,0,0
358835,56.9951,-446.596,0,0
360137,57.1888,-442.773,0,0
361438,57.5824,-439.218,0,0
362740.1,57.8881,-435.846,0,0
364041.725,58.2482,-432.282,0,0
365343.35,58.8231,-428.866,0,0
366644.975,59.3665,-425.648,0,0
367946.6,59.4795,-422.113,0,0
369248.225,60.1628,-417.685,0,0
370549.85,62.142,-413.261,0,0
371851.475,65.2342,-409.478,0,0
373153.1,68.7811,-407.047,0,0
374454.725,72.2481,-405.904,0,0
375756.35,74.7686,-405.664,0,0
377057.975,76.6431,-405.386,0,0
378359.6,78.4679,-405.349,0,0
379661,79.7122,-405.724,0,0
380963,80.9735,-405.689,0,0
382264,82.4571,-407.133,0,0
383566,82.2431,-409.404,0,0
384868,80.3792,-411.14,0,0
386169,77.6641,-411.783,0,0
387471,74.4838,-411.189,0,0
388773,71.7849,-409.423,0,0
390074,70.0581,-407.221,0,0
391376,68.8011,-405.345,0,0
392677,67.4583,-403.974,0,0
393979,65.3557,-402.535,0,0
395280.7,63.0034,-400.243,0,0
396582.325,60.8738,-397.18,0,0
397883.95,59.3794,-393.829,0,0
399185.575,58.2734,-390.269,0,0
400006.6,57.7921,-387.992,0,0

File: sample_2.csv
Frequency (Hz),Impedance (ohms),Phase (Radians),Temperature (C),Humidity (%)
10000.0,229.835,-11433,0,0
11301.625,204.423,-10126.4,0,0
12603.25,183.976,-9090.72,0,0
13904.875,186.346,-8244,0,0
15206.5,163.781,-7554.45,0,0
16508.125,143.293,-6959.38,0,0
17809.75,133.263,-6451.95,0,0
19111.375,128.476,-6011.9,0,0
20413.0,118.154,-5628.71,0,0
21714.625,127.012,-5299.37,0,0
23016.25,112.607,-5003.3,0,0
24317.875,102.732,-4737.11,0,0
25619.5,97.5089,-4493.62,0,0
26921.1,94.9208,-4275.27,0,0
28222.7,89.7493,-4075.65,0,0
29524.4,93.1827,-3892.09,0,0
30826,87.8182,-3737.82,0,0
32127.6,81.877,-3583.66,0,0
33429.2,79.5932,-3445,0,0
34730.9,75.6228,-3314.23,0,0
36032.5,72.7297,-3192.95,0,0
37334.1,70.778,-3079.1,0,0
38635.7,68.5356,-2974.25,0,0
39937.4,66.7806,-2875.39,0,0
41239,65.4137,-2782.56,0,0
42540.6,64.2238,-2695.84,0,0
43842.225,62.8319,-2613.79,0,0
45143.85,61.7605,-2536.14,0,0
46445.475,60.9157,-2463.87,0,0
47747.1,60.2714,-2394.27,0,0
49048.725,60.4545,-2330.34,0,0
50350.35,57.6971,-2268.23,0,0
51651.975,56.4395,-2208.97,0,0
52953.6,54.8806,-2151.68,0,0
54255.225,54.1764,-2097.1,0,0
55556.85,53.8094,-2045.03,0,0
56858.475,53.6901,-1995.18,0,0
58160.1,53.9506,-1947.9,0,0
59461.7,54.4051,-1901.86,0,0
60763.3,56.2662,-1859.41,0,0
62065,58.7459,-1821.04,0,0
63366.6,55.3006,-1784.31,0,0
64668.2,52.8662,-1745.96,0,0
65969.8,50.6112,-1706.85,0,0
67271.5,51.2861,-1669.64,0,0
68573.1,53.3581,-1635.63,0,0
69874.7,55.7885,-1605.32,0,0
71176.3,52.3337,-1577.2,0,0
72478,47.6939,-1546.6,0,0
73779.6,45.0825,-1513.73,0,0
75081.2,45.1195,-1481.34,0,0
76382.825,46.8689,-1451,0,0
77684.45,49.7725,-1422.75,0,0
78986.075,52.9697,-1398.54,0,0
80287.7,51.6907,-1377.01,0,0
81589.325,49.1728,-1351.85,0,0
82890.95,48.0892,-1326.16,0,0
84192.575,48.7503,-1301.36,0,0
85494.2,49.4702,-1277.77,0,0
86795.825,50.5248,-1255.8,0,0
88097.45,51.0915,-1234.6,0,0
89399.075,51.3681,-1213.13,0,0
90700.7,51.3803,-1192.91,0,0
92002.3,52.9519,-1171.68,0,0
93303.9,55.2629,-1152.72,0,0
94605.6,55.2676,-1136.13,0,0
95907.2,54.3926,-1116.7,0,0
97208.8,57.9778,-1099.64,0,0
98510.4,57.6098,-1085.98,0,0
99812.1,53.398,-1071.2,0,0
101114,50.5237,-1053.58,0,0
102415,46.9122,-1033.43,0,0
103717,46.0052,-1012.35,0,0
105019,49.3324,-992.018,0,0
106320.175,54.1089,-975.023,0,0
107621.8,57.7007,-963.138,0,0
108923.425,56.029,-950.957,0,0
110225.05,52.827,-935.715,0,0
111526.675,51.6783,-917.831,0,0
112828.3,52.2029,-900.284,0,0
114129.925,53.9099,-883.148,0,0
115431.55,56.7832,-866.618,0,0
116733.175,60.2925,-851.342,0,0
118034.8,64.3692,-837.373,0,0
119336.425,68.0104,-825.569,0,0
120638.05,70.0763,-815.074,0,0
121939.675,69.5022,-804.003,0,0
123241,68.5795,-791.053,0,0
124543,67.9301,-777.231,0,0
125845,68.0993,-762.253,0,0
127146,69.5885,-747.106,0,0
128448,72.5285,-732.72,0,0
129749,75.1767,-719.727,0,0
131051,77.7323,-706.735,0,0
132353,79.1124,-694.43,0,0
133654,80.4238,-680.544,0,0
134956,81.86,-666.414,0,0
136258,84.2439,-651.239,0,0
137559,87.3318,-636.147,0,0
138860.775,90.7075,-621.19,0,0
140162.4,93.9572,-605.001,0,0
141464.025,99.7277,-586.14,0,0
142765.65,109.382,-568.718,0,0
144067.275,119.932,-553.378,0,0
145368.9,131.431,-538.23,0,0
146670.525,144.962,-524.179,0,0
147972.15,160.821,-510.697,0,0
149273.775,181.596,-498.607,0,0
150575.4,208.387,-496.057,0,0
151877.025,229.457,-507.686,0,0
153178.65,236.661,-522.622,0,0
154480,234.092,-532.978,0,0
155782,229.609,-535.096,0,0
157084,223.719,-534.074,0,0
158385,220.019,-526.044,0,0
159687,221.505,-519.259,0,0
160988,222.149,-513.267,0,0
162290,229.607,-509.083,0,0
163592,225.669,-515.494,0,0
164893,212.505,-512.291,0,0
166195,199.631,-498.365,0,0
167497,192.708,-478.978,0,0
168798,190.558,-456.735,0,0
170100,192.673,-434.299,0,0
171401.375,197.413,-411.841,0,0
172703.0,206.531,-387.968,0,0
174004.625,219.131,-363.884,0,0
175306.25,238.907,-339.497,0,0
176607.875,265.286,-322.925,0,0
177909.5,292.822,-312.242,0,0
179211.125,315.325,-313.309,0,0
180512.75,324.161,-312.589,0,0
181814.375,329.796,-296.716,0,0
183116.0,346.472,-276.286,0,0
184417.625,371.212,-252.84,0,0
185719.25,406.646,-234.21,0,0
187021,444.835,-222.99,0,0
188322,487.618,-215.075,0,0
189624,528.606,-214.436,0,0
190926,574.523,-210.177,0,0
192227,634.366,-210.287,0,0
193529,707.556,-228.634,0,0
194831,776.008,-277.293,0,0
196132,825.979,-340.009,0,0
197434,863.563,-406.946,0,0
198735,893.749,-487.331,0,0
200037,898.545,-571.388,0,0
201339,888.632,-659.529,0,0
202640.35,851.253,-737.144,0,0
203941.975,798.801,-797.138,0,0
205243.6,745.243,-842.643,0,0
206545.225,681.172,-867.66,0,0
207846.85,629.612,-874.137,0,0
209148.475,593.837,-878.094,0,0
210450.1,555.608,-890.458,0,0
211751.725,509.922,-892.999,0,0
213053.35,471.201,-881.823,0,0
214354.975,441.009,-867.756,0,0
215656.6,416.879,-853.336,0,0
216958.225,397.833,-837.498,0,0
218259.85,384.141,-822.622,0,0
219561,374.404,-808.641,0,0
220863,368.307,-797.762,0,0
222165,365.376,-788.424,0,0
223466,364.796,-785.136,0,0
224768,361.281,-784.724,0,0
226070,356.339,-784.044,0,0
227371,354.398,-784.671,0,0
228673,352.145,-791.036,0,0
229974,343.66,-801.543,0,0
231276,328.779,-809.676,0,0
232578,311.853,-814.134,0,0
233879,293.472,-815.252,0,0
235180.95,275.377,-813.249,0,0
236482.575,258.113,-809.38,0,0
237784.2,240.977,-803.484,0,0
239085.825,225.28,-795.121,0,0
240387.45,211.497,-785.278,0,0
241689.075,199.925,-775.155,0,0
242990.7,190.015,-764.72,0,0
244292.325,181.576,-755.916,0,0
245593.95,172.75,-748.145,0,0
246895.575,161.706,-740.993,0,0
248197.2,149.012,-729.929,0,0
249498.825,138.431,-716.056,0,0
250800,129.908,-700.445,0,0
252102,124.768,-683.31,0,0
253404,122.745,-667.316,0,0
254705,122.02,-652.005,0,0
256007,123.254,-636.288,0,0
257309,127.962,-621.986,0,0
258610,133.971,-610.162,0,0
259912,141.091,-599.704,0,0
261213,149.992,-591.733,0,0
262515,159.106,-586.787,0,0
263817,167.642,-584.808,0,0
265118,174.444,-585.117,0,0
266420,178.57,-586.611,0,0
267721.55,181.061,-587.772,0,0
269023.175,181.592,-588.434,0,0
270324.8,181.383,-586.215,0,0
271626.425,184.22,-581.907,0,0
272928.05,190.473,-578.558,0,0
274229.675,200.749,-578.565,0,0
275531.3,213.157,-586.904,0,0
276832.925,217.353,-604.862,0,0
278134.55,209.961,-620.434,0,0
279436.175,198.577,-630.422,0,0
280737.8,185.28,-635.936,0,0
282039.425,172.364,-638.163,0,0
283341,157.414,-637.064,0,0
284643,146.393,-631.459,0,0
285944,133.959,-627.295,0,0
287246,120.571,-615.841,0,0
288548,113.394,-598.922,0,0
289849,115.689,-579.892,0,0
291151,127.637,-567.224,0,0
292452,143.039,-566.785,0,0
293754,148.576,-576.725,0,0
295056,144.876,-580.898,0,0
296357,146.253,-580.703,0,0
297659,146.768,-590.075,0,0
298960.525,137.547,-596.217,0,0
300262.15,127.764,-596.942,0,0
301563.775,119.431,-593.556,0,0
302865.4,115.431,-590.175,0,0
304167.025,111.179,-590.023,0,0
305468.65,103.867,-589.948,0,0
306770.275,95.2486,-587.121,0,0
308071.9,87.4251,-581.927,0,0
309373.525,81.2407,-575.521,0,0
310675.15,76.4576,-569.197,0,0
311976.775,72.2043,-562.834,0,0
313278.4,68.6754,-556.179,0,0
314580,65.8788,-549.714,0,0
315882,63.6366,-543.379,0,0
317183,61.7905,-537.195,0,0
318485,60.7004,-531.143,0,0
319787,59.8028,-525.748,0,0
321088,58.7941,-520.48,0,0
322390,57.7998,-515.17,0,0
323691,56.8215,-509.386,0,0
324993,56.7439,-502.826,0,0
326295,58.8188,-496.447,0,0
327596,62.1636,-492.589,0,0
328898,64.2606,-490.444,0,0
330200,65.6672,-488.72,0,0
331501.125,66.4506,-487.907,0,0
332802.75,65.5402,-487.567,0,0
334104.375,63.1613,-486.247,0,0
335406.0,60.7123,-483.373,0,0
336707.625,58.7369,-479.975,0,0
338009.25,57.0918,-476.048,0,0
339310.875,55.8193,-472.001,0,0
340612.5,54.9858,-467.597,0,0
341914.125,54.6276,-463.179,0,0
343215.75,54.6385,-458.897,0,0
344517.375,55.0003,-454.575,0,0
345819.0,55.9582,-450.511,0,0
347121,57.1811,-446.838,0,0
348422,58.582,-443.521,0,0
349724,60.213,-440.585,0,0
351025,61.8266,-438.185,0,0
352327,63.2594,-436.331,0,0
353629,64.2206,-434.486,0,0
354930,65.3491,-432.496,0,0
356232,66.5232,-430.676,0,0
357534,67.9641,-429.024,0,0
358835,69.6614,-428.115,0,0
360137,70.8998,-427.993,0,0
361438,71.3364,-428.287,0,0
362740.1,70.943,-428.508,0,0
364041.725,70.0645,-428.335,0,0
365343.35,68.845,-427.81,0,0
366644.975,67.3676,-426.617,0,0
367946.6,66.428,-424.82,0,0
369248.225,66.4102,-423.421,0,0
370549.85,65.773,-422.999,0,0
371851.475,64.4425,-422.159,0,0
373153.1,63.1683,-420.842,0,0
374454.725,61.9959,-419.672,0,0
375756.35,60.5319,-418.512,0,0
377057.975,58.9554,-417.057,0,0
378359.6,57.5328,-415.766,0,0
379661,54.8005,-414.442,0,0
380963,52.3631,-410.741,0,0
382264,52.4345,-407.819,0,0
383566,51.4627,-406.472,0,0
384868,49.5326,-404.575,0,0
386169,47.4932,-401.771,0,0
387471,46.0264,-398.436,0,0
388773,45.0484,-394.966,0,0
390074,44.6749,-391.516,0,0
391376,44.9165,-388.726,0,0
392677,44.4902,-386.941,0,0
393979,42.9713,-384.591,0,0
395280.7,41.4836,-381.203,0,0
396582.325,40.709,-377.182,0,0
397883.95,40.6557,-373.186,0,0
399185.575,41.1283,-369.488,0,0
400006.6,41.5448,-367.353,0,0