Folder: ML_Dmg_Mehdi_Dataset/Accelerated corrosion test data/2025-10-13_06-00-03 (part 4)

File: sample_8.csv
Frequency (Hz),Impedance (ohms),Phase (Radians),Temperature (C),Humidity (%)
10000.0,315.207,-10978.2,0,0
11301.625,279.567,-9729.28,0,0
12603.25,257.35,-8738.08,0,0
13904.875,228.807,-7936.1,0,0
15206.5,207.625,-7261.93,0,0
16508.125,191.905,-6695.22,0,0
17809.75,178.382,-6208.32,0,0
19111.375,170.429,-5786.11,0,0
20413.0,162.24,-5423.36,0,0
21714.625,152.254,-5102.66,0,0
23016.25,146.439,-4819.31,0,0
24317.875,135.84,-4561.89,0,0
25619.5,128.836,-4329.22,0,0
26921.1,123.947,-4118.2,0,0
28222.7,120.744,-3927.37,0,0
29524.4,118.359,-3753.67,0,0
30826,117.195,-3596.16,0,0
32127.6,115.694,-3451.11,0,0
33429.2,117.589,-3317,0,0
34730.9,114.587,-3201.12,0,0
36032.5,106.868,-3091.25,0,0
37334.1,98.7361,-2983.69,0,0
38635.7,92.0985,-2881.15,0,0
39937.4,86.9067,-2784.43,0,0
41239,84.9599,-2693.46,0,0
42540.6,82.3837,-2608.14,0,0
43842.225,81.9732,-2530.1,0,0
45143.85,78.8357,-2455.73,0,0
46445.475,76.1741,-2384.6,0,0
47747.1,75.1241,-2316.97,0,0
49048.725,72.8773,-2254.16,0,0
50350.35,71.0883,-2193.32,0,0
51651.975,70.1938,-2135.27,0,0
52953.6,69.7519,-2080.71,0,0
54255.225,68.5923,-2030.51,0,0
55556.85,65.458,-1981.05,0,0
56858.475,63.3074,-1931.93,0,0
58160.1,62.4728,-1885.01,0,0
59461.7,62.3086,-1841.2,0,0
60763.3,60.8774,-1798.44,0,0
62065,60.7271,-1757.42,0,0
63366.6,61.392,-1717.58,0,0
64668.2,62.62,-1681.65,0,0
65969.8,61.5004,-1647.37,0,0
67271.5,59.1295,-1612.76,0,0
68573.1,58.1292,-1578.48,0,0
69874.7,58.0602,-1545.22,0,0
71176.3,58.2913,-1513.73,0,0
72478,58.2985,-1484.03,0,0
73779.6,57.7891,-1454.72,0,0
75081.2,56.979,-1426.06,0,0
76382.825,56.9803,-1397.88,0,0
77684.45,56.8678,-1371.11,0,0
78986.075,56.5459,-1344.56,0,0
80287.7,56.6674,-1318.41,0,0
81589.325,57.1016,-1292.7,0,0
82890.95,58.7038,-1268.05,0,0
84192.575,60.3872,-1244.57,0,0
85494.2,61.4172,-1223.36,0,0
86795.825,61.1391,-1200.25,0,0
88097.45,62.7214,-1177.67,0,0
89399.075,64.8297,-1155.82,0,0
90700.7,67.788,-1134.41,0,0
92002.3,72.9177,-1115.76,0,0
93303.9,75.4952,-1100.7,0,0
94605.6,74.5479,-1082.71,0,0
95907.2,77.0426,-1065.26,0,0
97208.8,78.962,-1048.35,0,0
98510.4,81.6183,-1033.42,0,0
99812.1,81.5536,-1019.87,0,0
101114,81.9092,-1005.57,0,0
102415,80.6585,-991.679,0,0
103717,78.6734,-975.774,0,0
105019,78.4376,-959.516,0,0
106320.175,79.3321,-943.002,0,0
107621.8,80.9602,-929.062,0,0
108923.425,81.2233,-914.628,0,0
110225.05,82.2198,-900.532,0,0
111526.675,82.575,-887.185,0,0
112828.3,83.2573,-873.665,0,0
114129.925,83.5982,-860.693,0,0
115431.55,83.9211,-847.474,0,0
116733.175,83.5943,-834.685,0,0
118034.8,84.2473,-820.865,0,0
119336.425,85.3112,-808.328,0,0
120638.05,84.9651,-796.1,0,0
121939.675,85.1799,-783.326,0,0
123241,85.449,-770.861,0,0
124543,85.1686,-758.024,0,0
125845,85.4132,-745.256,0,0
127146,85.6762,-732.08,0,0
128448,86.0696,-718.983,0,0
129749,86.7346,-705.955,0,0
131051,87.8198,-692.772,0,0
132353,88.4061,-680.204,0,0
133654,88.5578,-667.007,0,0
134956,89.4405,-651.952,0,0
136258,92.9955,-638.153,0,0
137559,94.4121,-626.622,0,0
138860.775,94.1952,-612.176,0,0
140162.4,96.0807,-596.776,0,0
141464.025,98.7571,-581.168,0,0
142765.65,101.721,-565.323,0,0
144067.275,105.454,-548.293,0,0
145368.9,111.385,-529.645,0,0
146670.525,120.511,-512.396,0,0
147972.15,130.187,-497.607,0,0
149273.775,139.646,-478.38,0,0
150575.4,157.497,-460.357,0,0
151877.025,182.068,-451.021,0,0
153178.65,199.415,-452.448,0,0
154480,208.004,-454.426,0,0
155782,217.215,-447.829,0,0
157084,226.746,-456.455,0,0
158385,220.708,-449.435,0,0
159687,230.244,-438.283,0,0
160988,232.204,-436.913,0,0
162290,236.544,-421.76,0,0
163592,250.624,-412.929,0,0
164893,263.262,-411.954,0,0
166195,267.867,-419.907,0,0
167497,259.201,-416.978,0,0
168798,252.904,-404.928,0,0
170100,250.987,-386.62,0,0
171401.375,252.123,-366.331,0,0
172703.0,260.983,-337.349,0,0
174004.625,281.03,-316.513,0,0
175306.25,296.594,-302.373,0,0
176607.875,312.05,-278.223,0,0
177909.5,338.881,-255.839,0,0
179211.125,375.624,-236.957,0,0
180512.75,416.245,-232.16,0,0
181814.375,449.893,-233.661,0,0
183116.0,484.239,-240.532,0,0
184417.625,505.97,-247.346,0,0
185719.25,529.619,-243.344,0,0
187021,568.836,-239.845,0,0
188322,611.434,-244.774,0,0
189624,655.101,-265.826,0,0
190926,687.568,-282.954,0,0
192227,732.752,-304.869,0,0
193529,771.257,-323.662,0,0
194831,843.782,-359.228,0,0
196132,903.873,-434.792,0,0
197434,936.483,-544.668,0,0
198735,918.088,-654.439,0,0
200037,876.366,-746.094,0,0
201339,804.446,-813.397,0,0
202640.35,728.019,-857.798,0,0
203941.975,650.607,-862.055,0,0
205243.6,598.054,-852.656,0,0
206545.225,551.74,-837.4,0,0
207846.85,527.022,-811.842,0,0
209148.475,515.411,-798.182,0,0
210450.1,507.402,-787.934,0,0
211751.725,504.996,-784.77,0,0
213053.35,501.493,-792.607,0,0
214354.975,487.114,-803.065,0,0
215656.6,468.445,-806.993,0,0
216958.225,450.556,-803.669,0,0
218259.85,440.569,-798.955,0,0
219561,433.251,-795.211,0,0
220863,430.337,-796.803,0,0
222165,425.692,-801.953,0,0
223466,418.086,-811.863,0,0
224768,407.671,-821.129,0,0
226070,393.974,-834.661,0,0
227371,371.228,-843.859,0,0
228673,346.991,-845.746,0,0
229974,326.625,-844.407,0,0
231276,304.581,-844.029,0,0
232578,280.357,-838.754,0,0
233879,257.934,-828.499,0,0
235180.95,238.223,-813.837,0,0
236482.575,223.669,-796.459,0,0
237784.2,214.767,-779.172,0,0
239085.825,210.527,-763.897,0,0
240387.45,209.728,-754.847,0,0
241689.075,204.231,-750.799,0,0
242990.7,193.638,-744.681,0,0
244292.325,183.579,-733.939,0,0
245593.95,175.96,-721.678,0,0
246895.575,170.67,-708.787,0,0
248197.2,166.869,-697.591,0,0
249498.825,162.08,-685.3,0,0
250800,159.728,-670.518,0,0
252102,163.045,-655.433,0,0
253404,170.01,-646.636,0,0
254705,172.846,-642.11,0,0
256007,173.629,-635.528,0,0
257309,175.768,-628.064,0,0
258610,179.295,-620.672,0,0
259912,184.493,-614.42,0,0
261213,190.598,-610.131,0,0
262515,197.617,-608.438,0,0
263817,201.456,-609.328,0,0
265118,202.907,-607.327,0,0
266420,208.243,-602.769,0,0
267721.55,219.271,-600.516,0,0
269023.175,233.866,-606.156,0,0
270324.8,244.507,-620.945,0,0
271626.425,247.732,-641.545,0,0
272928.05,240.943,-663.741,0,0
274229.675,222.88,-682.497,0,0
275531.3,198.258,-689.66,0,0
276832.925,177.157,-686.61,0,0
278134.55,160.515,-680.076,0,0
279436.175,146.521,-671.223,0,0
280737.8,136.932,-659.03,0,0
282039.425,132.805,-648.273,0,0
283341,130.961,-640.604,0,0
284643,128.306,-634.212,0,0
285944,127.942,-626.877,0,0
287246,131.68,-623.43,0,0
288548,132.974,-628.134,0,0
289849,125.6,-632.671,0,0
291151,115.587,-632.016,0,0
292452,106.396,-628.916,0,0
293754,97.4175,-623.686,0,0
295056,89.6307,-616.642,0,0
296357,83.7007,-608.354,0,0
297659,79.4392,-600.412,0,0
298960.525,75.8351,-592.38,0,0
300262.15,73.2939,-584.194,0,0
301563.775,72.2016,-575.96,0,0
302865.4,72.5588,-568.821,0,0
304167.025,73.3299,-562.94,0,0
305468.65,74.2309,-557.926,0,0
306770.275,75.441,-553.842,0,0
308071.9,76.3105,-550.735,0,0
309373.525,76.937,-549.061,0,0
310675.15,75.5002,-547.455,0,0
311976.775,73.8285,-545.109,0,0
313278.4,72.0391,-542.702,0,0
314580,69.5402,-540.14,0,0
315882,66.9825,-536.619,0,0
317183,64.9698,-532.529,0,0
318485,63.6495,-528.527,0,0
319787,62.8004,-524.754,0,0
321088,62.1798,-521.922,0,0
322390,60.8852,-519.395,0,0
323691,59.2257,-516.871,0,0
324993,56.8113,-514.362,0,0
326295,54.2756,-510.883,0,0
327596,52.1264,-507.035,0,0
328898,50.2731,-502.976,0,0
330200,48.476,-498.961,0,0
331501.125,46.8139,-494.685,0,0
332802.75,45.4381,-490.134,0,0
334104.375,44.6225,-485.33,0,0
335406.0,44.5363,-480.858,0,0
336707.625,44.7086,-476.969,0,0
338009.25,44.7993,-473.647,0,0
339310.875,44.5385,-470.658,0,0
340612.5,43.95,-467.659,0,0
341914.125,43.0971,-464.432,0,0
343215.75,42.3125,-460.954,0,0
344517.375,41.6383,-457.218,0,0
345819.0,41.2588,-453.465,0,0
347121,41.1771,-449.584,0,0
348422,41.3442,-445.905,0,0
349724,41.7518,-442.548,0,0
351025,42.1459,-439.218,0,0
352327,42.5994,-436.218,0,0
353629,43.1643,-433.313,0,0
354930,43.6778,-430.789,0,0
356232,43.966,-428.383,0,0
357534,44.0498,-426.171,0,0
358835,43.8259,-423.797,0,0
360137,43.5713,-421.148,0,0
361438,43.3774,-418.423,0,0
362740.1,43.3432,-415.56,0,0
364041.725,43.3561,-412.686,0,0
365343.35,43.6246,-409.734,0,0
366644.975,44.1622,-407.039,0,0
367946.6,44.5255,-404.581,0,0
369248.225,44.8444,-401.855,0,0
370549.85,45.6812,-399.127,0,0
371851.475,46.6832,-397.089,0,0
373153.1,47.3435,-395.288,0,0
374454.725,47.7691,-393.535,0,0
375756.35,48.0663,-391.676,0,0
377057.975,48.5878,-389.825,0,0
378359.6,49.0502,-388.581,0,0
379661,48.5616,-387.182,0,0
380963,48.5084,-384.908,0,0
382264,49.2433,-383.628,0,0
383566,48.7203,-382.961,0,0
384868,47.3961,-381.548,0,0
386169,46.1085,-379.342,0,0
387471,45.1628,-376.664,0,0
388773,44.6085,-373.75,0,0
390074,44.4999,-370.899,0,0
391376,44.5185,-368.257,0,0
392677,44.4792,-365.765,0,0
393979,44.4043,-363.083,0,0
395280.7,44.5288,-360.356,0,0
396582.325,44.9757,-357.665,0,0
397883.95,45.4977,-355.328,0,0
399185.575,45.7872,-353.161,0,0
400006.6,45.8856,-351.771,0,0