Folder: ML_Dmg_Mehdi_Dataset/Accelerated corrosion test data/2025-10-03_06-00-02 (part 3)

File: sample_6.csv
Frequency (Hz),Impedance (ohms),Phase (Radians),Temperature (C),Humidity (%)
10000.0,4292.95,-6443.53,0,0
11301.625,3664.69,-6088.01,0,0
12603.25,3161.73,-5742.47,0,0
13904.875,2753.16,-5424.45,0,0
15206.5,2418.14,-5124.93,0,0
16508.125,2139.99,-4848.84,0,0
17809.75,1908.29,-4596.98,0,0
19111.375,1713.7,-4363.38,0,0
20413.0,1545.43,-4152.18,0,0
21714.625,1401.76,-3955.22,0,0
23016.25,1282.52,-3769.32,0,0
24317.875,1174.81,-3612.29,0,0
25619.5,1079.36,-3458.41,0,0
26921.1,995.634,-3314.71,0,0
28222.7,924.599,-3183.86,0,0
29524.4,858.66,-3058.9,0,0
30826,802.948,-2945.15,0,0
32127.6,752.55,-2835.11,0,0
33429.2,712.974,-2736.13,0,0
34730.9,672.381,-2648.66,0,0
36032.5,635.191,-2566.45,0,0
37334.1,596.36,-2485.98,0,0
38635.7,561.805,-2407.08,0,0
39937.4,532.83,-2331.64,0,0
41239,506.328,-2260.93,0,0
42540.6,483.266,-2195.14,0,0
43842.225,462.448,-2128.98,0,0
45143.85,445.383,-2066.08,0,0
46445.475,434.891,-2010.77,0,0
47747.1,422.882,-1960.68,0,0
49048.725,414.834,-1917.11,0,0
50350.35,396.784,-1884.5,0,0
51651.975,372.581,-1842.09,0,0
52953.6,355.054,-1797.5,0,0
54255.225,337.218,-1755.38,0,0
55556.85,321.154,-1713.98,0,0
56858.475,307.802,-1667.55,0,0
58160.1,303.187,-1629,0,0
59461.7,294.345,-1596.99,0,0
60763.3,281.554,-1564.63,0,0
62065,267.789,-1528.93,0,0
63366.6,263.324,-1490.41,0,0
64668.2,256.92,-1465.37,0,0
65969.8,247.588,-1435.16,0,0
67271.5,236.187,-1406.63,0,0
68573.1,226.472,-1374.23,0,0
69874.7,219.353,-1341.85,0,0
71176.3,215.44,-1309.91,0,0
72478,213.831,-1280.54,0,0
73779.6,213.868,-1254.31,0,0
75081.2,212.448,-1230.28,0,0
76382.825,211.149,-1207.5,0,0
77684.45,209.708,-1184.68,0,0
78986.075,209.722,-1163.79,0,0
80287.7,209.319,-1145.27,0,0
81589.325,207.105,-1128.12,0,0
82890.95,203.507,-1110.96,0,0
84192.575,198.834,-1093.09,0,0
85494.2,194.997,-1073.45,0,0
86795.825,192.955,-1054.45,0,0
88097.45,190.888,-1036.65,0,0
89399.075,189.413,-1018.9,0,0
90700.7,188.883,-1002.3,0,0
92002.3,186.316,-987.136,0,0
93303.9,184.875,-970.075,0,0
94605.6,184.945,-952.264,0,0
95907.2,186.981,-938.516,0,0
97208.8,186.197,-926.749,0,0
98510.4,183.94,-910.212,0,0
99812.1,190.442,-896.626,0,0
101114,190.904,-892.551,0,0
102415,186.953,-882.117,0,0
103717,184.292,-876.463,0,0
105019,172.477,-869.764,0,0
106320.175,158.667,-850.393,0,0
107621.8,155.354,-826.636,0,0
108923.425,158.405,-807.833,0,0
110225.05,160.929,-792.201,0,0
111526.675,163.947,-777.006,0,0
112828.3,168.02,-763.593,0,0
114129.925,173.554,-752.199,0,0
115431.55,177.069,-742.98,0,0
116733.175,181.84,-735.625,0,0
118034.8,180.369,-730.086,0,0
119336.425,179.915,-717.771,0,0
120638.05,187.876,-706.273,0,0
121939.675,193.333,-709.271,0,0
123241,187.347,-706.021,0,0
124543,183.226,-700.148,0,0
125845,178.053,-692.283,0,0
127146,172.779,-682.379,0,0
128448,171.047,-669.508,0,0
129749,173.544,-660.089,0,0
131051,173.721,-654.162,0,0
132353,171.972,-648.738,0,0
133654,167.775,-643.243,0,0
134956,161.751,-635.326,0,0
136258,155.707,-624.83,0,0
137559,150.887,-612.481,0,0
138860.775,147.664,-599.054,0,0
140162.4,146.204,-585.348,0,0
141464.025,146.27,-571.662,0,0
142765.65,146.778,-559.055,0,0
144067.275,148.616,-545.638,0,0
145368.9,152.569,-534.981,0,0
146670.525,153.59,-526.129,0,0
147972.15,153.209,-515.985,0,0
149273.775,152.668,-503.817,0,0
150575.4,153.027,-489.47,0,0
151877.025,156.305,-472.71,0,0
153178.65,167.052,-459.009,0,0
154480,173.91,-452.229,0,0
155782,178.801,-441.326,0,0
157084,189.122,-432.704,0,0
158385,195.088,-430.23,0,0
159687,196.929,-425.154,0,0
160988,198.979,-418.427,0,0
162290,200.567,-412.055,0,0
163592,201.632,-403.756,0,0
164893,201.118,-394.463,0,0
166195,202.842,-381.766,0,0
167497,206.421,-370.241,0,0
168798,210.469,-358.142,0,0
170100,215.251,-346.727,0,0
171401.375,219.545,-334.751,0,0
172703.0,224.346,-322.1,0,0
174004.625,229.082,-308.634,0,0
175306.25,234.047,-292.964,0,0
176607.875,241.092,-274.86,0,0
177909.5,251.471,-255.104,0,0
179211.125,265.918,-234.189,0,0
180512.75,286.094,-215.119,0,0
181814.375,309.266,-200.161,0,0
183116.0,333.077,-189.611,0,0
184417.625,356.799,-180.978,0,0
185719.25,379.016,-177.562,0,0
187021,394.055,-174.193,0,0
188322,403.458,-160.81,0,0
189624,419.164,-134.639,0,0
190926,451.085,-100.015,0,0
192227,503.395,-71.2597,0,0
193529,565.626,-52.836,0,0
194831,642.585,-45.8617,0,0
196132,727.168,-61.0105,0,0
197434,810.065,-97.5059,0,0
198735,887.048,-150.483,0,0
200037,959.15,-223.591,0,0
201339,1018.86,-316.243,0,0
202640.35,1057.37,-435.813,0,0
203941.975,1049.38,-563.953,0,0
205243.6,1008.33,-673.676,0,0
206545.225,945.67,-761.476,0,0
207846.85,873.9,-822.226,0,0
209148.475,805.067,-860.911,0,0
210450.1,744.988,-887.707,0,0
211751.725,689.542,-914.539,0,0
213053.35,623.518,-935.254,0,0
214354.975,557.557,-938.062,0,0
215656.6,499.401,-928.303,0,0
216958.225,451.235,-912.099,0,0
218259.85,410.915,-893.047,0,0
219561,376.888,-872.218,0,0
220863,348.559,-850.936,0,0
222165,324.216,-829.206,0,0
223466,304.273,-806.38,0,0
224768,289.309,-782.915,0,0
226070,280.5,-760.175,0,0
227371,277.987,-741.645,0,0
228673,277.822,-731.33,0,0
229974,273.014,-727.208,0,0
231276,262.092,-722.061,0,0
232578,249.287,-712.78,0,0
233879,237.992,-699.901,0,0
235180.95,229.669,-685.211,0,0
236482.575,224.248,-670.577,0,0
237784.2,220.925,-656.429,0,0
239085.825,219.396,-642.955,0,0
240387.45,219.252,-630.495,0,0
241689.075,220.202,-618.871,0,0
242990.7,222.174,-607.688,0,0
244292.325,225.437,-596.997,0,0
245593.95,230.057,-586.765,0,0
246895.575,237.031,-576.613,0,0
248197.2,247.585,-568.53,0,0
249498.825,259.944,-564.93,0,0
250800,271.095,-564.346,0,0
252102,284.354,-564.344,0,0
253404,301.472,-570.675,0,0
254705,316.615,-586.809,0,0
256007,322.957,-610.444,0,0
257309,319.032,-634.609,0,0
258610,307.161,-655.328,0,0
259912,290.197,-670.874,0,0
261213,270.514,-680.825,0,0
262515,250.57,-684.978,0,0
263817,232.368,-685.208,0,0
265118,215.606,-682.868,0,0
266420,200.582,-678.751,0,0
267721.55,187.236,-673.161,0,0
269023.175,175.585,-666.878,0,0
270324.8,164.952,-660.328,0,0
271626.425,155.416,-653.494,0,0
272928.05,146.697,-646.201,0,0
274229.675,138.812,-638.741,0,0
275531.3,131.564,-631,0,0
276832.925,125.274,-623.13,0,0
278134.55,119.605,-615.177,0,0
279436.175,114.787,-606.945,0,0
280737.8,111.246,-598.636,0,0
282039.425,108.896,-591.426,0,0
283341,106.319,-585.047,0,0
284643,103.952,-578.563,0,0
285944,102.212,-572.411,0,0
287246,100.806,-567.312,0,0
288548,98.6465,-562.406,0,0
289849,96.7889,-557.213,0,0
291151,95.2354,-552.339,0,0
292452,93.9003,-547.938,0,0
293754,92.4282,-544.101,0,0
295056,90.2442,-540.633,0,0
296357,87.2388,-536.713,0,0
297659,84.0984,-531.587,0,0
298960.525,82.1937,-525.48,0,0
300262.15,81.806,-520.087,0,0
301563.775,81.4556,-515.758,0,0
302865.4,80.7508,-511.915,0,0
304167.025,79.752,-507.911,0,0
305468.65,79.0151,-503.635,0,0
306770.275,79.315,-499.704,0,0
308071.9,79.3443,-497.214,0,0
309373.525,78.5033,-494.786,0,0
310675.15,77.3914,-492.236,0,0
311976.775,75.9654,-489.656,0,0
313278.4,74.3231,-486.958,0,0
314580,72.6622,-483.994,0,0
315882,71.0945,-480.813,0,0
317183,69.6654,-477.718,0,0
318485,68.1902,-474.604,0,0
319787,66.5136,-471.447,0,0
321088,64.8605,-468.054,0,0
322390,63.4935,-464.416,0,0
323691,62.4157,-460.95,0,0
324993,61.3296,-457.615,0,0
326295,60.2043,-454.255,0,0
327596,59.0459,-450.815,0,0
328898,58.0762,-447.374,0,0
330200,57.2307,-443.949,0,0
331501.125,56.4019,-440.504,0,0
332802.75,55.6042,-437.103,0,0
334104.375,54.964,-433.667,0,0
335406.0,54.5031,-430.247,0,0
336707.625,54.1477,-427.021,0,0
338009.25,53.8062,-423.901,0,0
339310.875,53.4258,-420.737,0,0
340612.5,53.1178,-417.546,0,0
341914.125,52.9923,-414.404,0,0
343215.75,53.1525,-411.459,0,0
344517.375,53.2845,-409.245,0,0
345819.0,52.5667,-406.943,0,0
347121,51.9011,-404.096,0,0
348422,51.4077,-401.117,0,0
349724,51.1882,-398.15,0,0
351025,50.9975,-395.29,0,0
352327,51.0098,-392.444,0,0
353629,51.0876,-389.838,0,0
354930,51.0467,-387.355,0,0
356232,50.8829,-384.832,0,0
357534,50.8015,-382.194,0,0
358835,50.956,-379.666,0,0
360137,51.1615,-377.43,0,0
361438,51.0741,-375.358,0,0
362740.1,50.8223,-373.226,0,0
364041.725,50.4242,-370.942,0,0
365343.35,50.1595,-368.548,0,0
366644.975,49.9803,-366.11,0,0
367946.6,49.7983,-363.682,0,0
369248.225,49.7485,-361.266,0,0
370549.85,49.7151,-358.81,0,0
371851.475,49.9068,-356.424,0,0
373153.1,50.2042,-354.247,0,0
374454.725,50.4715,-352.602,0,0
375756.35,50.1099,-350.961,0,0
377057.975,49.5544,-349.009,0,0
378359.6,49.0624,-346.928,0,0
379661,48.4206,-344.721,0,0
380963,47.7515,-342.208,0,0
382264,47.3855,-339.345,0,0
383566,47.6623,-336.628,0,0
384868,47.7702,-334.675,0,0
386169,47.401,-332.49,0,0
387471,47.0379,-330.09,0,0
388773,46.7274,-327.525,0,0
390074,46.5181,-324.878,0,0
391376,46.4245,-322.24,0,0
392677,46.3963,-319.572,0,0
393979,46.4488,-316.923,0,0
395280.7,46.5198,-314.228,0,0
396582.325,46.6449,-311.502,0,0
397883.95,46.8397,-308.819,0,0
399185.575,47.1366,-306.091,0,0
400006.6,47.3296,-304.388,0,0

File: sample_7.csv
Frequency (Hz),Impedance (ohms),Phase (Radians),Temperature (C),Humidity (%)
10000.0,277.039,-12084.7,0,0
11301.625,248.544,-10690.1,0,0
12603.25,266.552,-9647.98,0,0
13904.875,210.608,-8749.64,0,0
15206.5,201.666,-8006.69,0,0
16508.125,173.426,-7369.53,0,0
17809.75,168.977,-6813.79,0,0
19111.375,186.7,-6381.43,0,0
20413.0,171.065,-5974.43,0,0
21714.625,155.89,-5633.92,0,0
23016.25,132.426,-5314.95,0,0
24317.875,124.576,-5022.93,0,0
25619.5,120.322,-4758.85,0,0
26921.1,124.703,-4513.85,0,0
28222.7,181.185,-4306.3,0,0
29524.4,138.327,-4167.62,0,0
30826,135.819,-3985.44,0,0
32127.6,119.006,-3839.45,0,0
33429.2,103.487,-3688.31,0,0
34730.9,94.1121,-3543.74,0,0
36032.5,89.7379,-3410.24,0,0
37334.1,87.7903,-3286.3,0,0
38635.7,87.805,-3169.73,0,0
39937.4,99.0765,-3069.44,0,0
41239,88.5809,-2982.4,0,0
42540.6,81.3277,-2886.32,0,0
43842.225,80.7334,-2797.88,0,0
45143.85,81.9784,-2720.76,0,0
46445.475,79.1065,-2646.87,0,0
47747.1,72.1773,-2571.22,0,0
49048.725,69.6021,-2501.31,0,0
50350.35,67.6224,-2434.06,0,0
51651.975,65.987,-2370.33,0,0
52953.6,64.9182,-2309.91,0,0
54255.225,63.7666,-2253.18,0,0
55556.85,62.5152,-2198.43,0,0
56858.475,61.7591,-2146.13,0,0
58160.1,60.9937,-2095.83,0,0
59461.7,61.1061,-2048.55,0,0
60763.3,60.6334,-2004.63,0,0
62065,58.5967,-1961.26,0,0
63366.6,57.5664,-1918.69,0,0
64668.2,56.456,-1878,0,0
65969.8,56.6133,-1839.55,0,0
67271.5,54.9133,-1802.77,0,0
68573.1,53.6273,-1765.98,0,0
69874.7,53.1111,-1730.71,0,0
71176.3,52.9031,-1697.14,0,0
72478,51.903,-1664.81,0,0
73779.6,50.9781,-1633,0,0
75081.2,50.4789,-1602.24,0,0
76382.825,49.959,-1572.48,0,0
77684.45,49.6511,-1543.55,0,0
78986.075,49.3859,-1515.62,0,0
80287.7,49.2114,-1488.47,0,0
81589.325,48.9097,-1462.28,0,0
82890.95,48.8268,-1436.6,0,0
84192.575,48.7133,-1411.57,0,0
85494.2,48.9856,-1387.48,0,0
86795.825,48.9041,-1364.12,0,0
88097.45,49.1187,-1341.16,0,0
89399.075,49.1198,-1318.95,0,0
90700.7,49.3453,-1296.84,0,0
92002.3,49.9099,-1275.61,0,0
93303.9,49.9335,-1254.56,0,0
94605.6,52.7603,-1234.54,0,0
95907.2,51.9157,-1217.15,0,0
97208.8,51.2761,-1197.09,0,0
98510.4,52.1357,-1177.68,0,0
99812.1,51.9755,-1159.55,0,0
101114,53.1239,-1140.36,0,0
102415,54.7958,-1122.37,0,0
103717,57.4318,-1105.15,0,0
105019,58.8317,-1090.22,0,0
106320.175,58.4723,-1074.74,0,0
107621.8,59.3297,-1058,0,0
108923.425,60.4411,-1042.34,0,0
110225.05,60.7611,-1026,0,0
111526.675,63.4531,-1008.74,0,0
112828.3,67.28,-992.803,0,0
114129.925,72.4099,-978.948,0,0
115431.55,77.5801,-966.11,0,0
116733.175,85.3583,-955.761,0,0
118034.8,89.4631,-950.88,0,0
119336.425,92.01,-946.696,0,0
120638.05,86.7798,-945.991,0,0
121939.675,76.3489,-936.129,0,0
123241,70.2957,-923.336,0,0
124543,65.5467,-908.807,0,0
125845,62.1104,-895.731,0,0
127146,58.7702,-881.137,0,0
128448,56.8971,-865.833,0,0
129749,55.6958,-851.379,0,0
131051,54.8062,-836.685,0,0
132353,53.8461,-821.733,0,0
133654,54.5688,-806.105,0,0
134956,57.6061,-791.135,0,0
136258,62.1677,-778.538,0,0
137559,63.0924,-770.399,0,0
138860.775,61.7093,-758.653,0,0
140162.4,61.5334,-745.002,0,0
141464.025,62.2242,-731.91,0,0
142765.65,63.2316,-718.285,0,0
144067.275,65.4522,-704.781,0,0
145368.9,67.2878,-692.579,0,0
146670.525,68.2634,-679.467,0,0
147972.15,69.7276,-666.278,0,0
149273.775,71.0947,-652.785,0,0
150575.4,71.879,-637.421,0,0
151877.025,74.0347,-620.271,0,0
153178.65,78.8394,-602.005,0,0
154480,85.7247,-584.141,0,0
155782,95.3749,-566.445,0,0
157084,107.446,-551.026,0,0
158385,120.263,-538.788,0,0
159687,129.655,-530.071,0,0
160988,133.242,-515.21,0,0
162290,143.278,-491.52,0,0
163592,162.722,-468.698,0,0
164893,190.046,-449.91,0,0
166195,219.611,-433.328,0,0
167497,266.175,-420.604,0,0
168798,318.743,-429.869,0,0
170100,361.908,-460.774,0,0
171401.375,396.294,-505.931,0,0
172703.0,406.788,-558.887,0,0
174004.625,386.482,-611.544,0,0
175306.25,347.891,-634.653,0,0
176607.875,324.571,-625.58,0,0
177909.5,331.616,-628.203,0,0
179211.125,333.86,-663.174,0,0
180512.75,298.154,-687.404,0,0
181814.375,261.239,-699.686,0,0
183116.0,218.321,-691.104,0,0
184417.625,187.969,-667.572,0,0
185719.25,172.302,-643.387,0,0
187021,156.385,-618.765,0,0
188322,152.062,-592.526,0,0
189624,147.791,-576.763,0,0
190926,140.272,-553.536,0,0
192227,140.013,-527.977,0,0
193529,142.521,-503.529,0,0
194831,149.221,-478.836,0,0
196132,160.614,-456.933,0,0
197434,173.322,-437.484,0,0
198735,186.045,-419.34,0,0
200037,200.126,-400.098,0,0
201339,219.036,-379.319,0,0
202640.35,243.438,-359.381,0,0
203941.975,274.804,-344.059,0,0
205243.6,311.054,-336.464,0,0
206545.225,349.919,-339.299,0,0
207846.85,378.095,-350.493,0,0
209148.475,405.994,-349.894,0,0
210450.1,457.711,-364.236,0,0
211751.725,496.203,-409.096,0,0
213053.35,507.368,-456.05,0,0
214354.975,508.62,-499.516,0,0
215656.6,495.312,-534.032,0,0
216958.225,487.046,-562.249,0,0
218259.85,464.764,-592.721,0,0
219561,433.925,-609.649,0,0
220863,402.541,-605.698,0,0
222165,387.367,-592.287,0,0
223466,384.449,-580.059,0,0
224768,386.837,-571.607,0,0
226070,396.236,-563.857,0,0
227371,414.864,-568.364,0,0
228673,430.702,-581.81,0,0
229974,442.049,-609.283,0,0
231276,441.314,-641.981,0,0
232578,425.968,-672.135,0,0
233879,403.603,-702.363,0,0
235180.95,358.669,-720.15,0,0
236482.575,320.715,-710.895,0,0
237784.2,297.209,-700.157,0,0
239085.825,273.837,-682.115,0,0
240387.45,268.315,-662.175,0,0
241689.075,263.867,-657.279,0,0
242990.7,250.607,-649.43,0,0
244292.325,242.177,-630.263,0,0
245593.95,247.049,-613.562,0,0
246895.575,251.787,-608.69,0,0
248197.2,252.496,-603.947,0,0
249498.825,255.171,-597.985,0,0
250800,259.565,-595.187,0,0
252102,263.28,-595.008,0,0
253404,266.124,-598.255,0,0
254705,265.23,-604.34,0,0
256007,258.023,-609.07,0,0
257309,248.517,-608.442,0,0
258610,239.667,-603.175,0,0
259912,235.413,-595.146,0,0
261213,232.823,-585.891,0,0
262515,237.04,-574.381,0,0
263817,248.925,-570.593,0,0
265118,256.641,-576.451,0,0
266420,258.596,-580.503,0,0
267721.55,262.071,-585.556,0,0
269023.175,262.518,-592.738,0,0
270324.8,263.113,-597.471,0,0
271626.425,267.176,-607.09,0,0
272928.05,270.357,-627.517,0,0
274229.675,252.273,-656.532,0,0
275531.3,215.859,-669.641,0,0
276832.925,179.448,-661.562,0,0
278134.55,153.644,-640.681,0,0
279436.175,141.977,-616.251,0,0
280737.8,138.58,-596.208,0,0
282039.425,138.301,-582.164,0,0
283341,135.834,-569.421,0,0
284643,135.403,-554.245,0,0
285944,140.295,-540.419,0,0
287246,146.516,-531.557,0,0
288548,150.167,-524.802,0,0
289849,153.872,-515.864,0,0
291151,160.143,-507.413,0,0
292452,167.824,-501.191,0,0
293754,175.902,-496.244,0,0
295056,184.229,-491.971,0,0
296357,194.547,-488.113,0,0
297659,207.657,-486.991,0,0
298960.525,221.667,-490.503,0,0
300262.15,235.195,-497.16,0,0
301563.775,250.178,-508.847,0,0
302865.4,263.424,-531.775,0,0
304167.025,259.409,-562.357,0,0
305468.65,243.985,-583.746,0,0
306770.275,224.343,-597.687,0,0
308071.9,202.966,-603.554,0,0
309373.525,183.494,-603.073,0,0
310675.15,167.5,-598.36,0,0
311976.775,155.002,-591.816,0,0
313278.4,145.254,-585.214,0,0
314580,136.399,-578.232,0,0
315882,129.368,-569.886,0,0
317183,125.181,-561.895,0,0
318485,122.219,-555.479,0,0
319787,119.605,-549.356,0,0
321088,118.444,-544.43,0,0
322390,116.762,-540.98,0,0
323691,114.413,-538.016,0,0
324993,111.688,-534.811,0,0
326295,109.117,-531.435,0,0
327596,106.718,-528.637,0,0
328898,103.715,-526.153,0,0
330200,100.389,-523.144,0,0
331501.125,97.092,-520.282,0,0
332802.75,93.1953,-517.74,0,0
334104.375,88.2236,-514.221,0,0
335406.0,83.4741,-509.393,0,0
336707.625,79.2434,-503.782,0,0
338009.25,75.6075,-497.352,0,0
339310.875,73.155,-490.65,0,0
340612.5,71.3994,-484.194,0,0
341914.125,70.1559,-477.62,0,0
343215.75,69.7985,-471.166,0,0
344517.375,70.1851,-465.111,0,0
345819.0,71.0781,-459.959,0,0
347121,71.7677,-455.72,0,0
348422,71.798,-451.914,0,0
349724,71.1888,-447.522,0,0
351025,70.9786,-442.508,0,0
352327,71.3915,-437.059,0,0
353629,73.1108,-431.925,0,0
354930,75.3232,-428.038,0,0
356232,77.0001,-425.423,0,0
357534,77.3711,-423.123,0,0
358835,76.6436,-419.963,0,0
360137,76.3542,-415.178,0,0
361438,77.5161,-409.982,0,0
362740.1,79.6905,-405.421,0,0
364041.725,82.375,-401.673,0,0
365343.35,85.1011,-398.69,0,0
366644.975,87.7393,-396.544,0,0
367946.6,89.7157,-394.703,0,0
369248.225,91.8516,-393.149,0,0
370549.85,93.1831,-392.687,0,0
371851.475,92.4497,-391.74,0,0
373153.1,91.6584,-388.596,0,0
374454.725,92.2019,-384.855,0,0
375756.35,93.3756,-381.434,0,0
377057.975,94.8841,-378.121,0,0
378359.6,96.4115,-374.867,0,0
379661,98.5547,-371.263,0,0
380963,101.307,-368.213,0,0
382264,104.14,-365.588,0,0
383566,107.276,-363.306,0,0
384868,110.271,-361.522,0,0
386169,113.043,-360.014,0,0
387471,115.582,-357.984,0,0
388773,118.74,-355.88,0,0
390074,122.731,-353.834,0,0
391376,127.03,-352.864,0,0
392677,131.069,-352.186,0,0
393979,135.445,-351.278,0,0
395280.7,140.92,-350.82,0,0
396582.325,147.445,-351.578,0,0
397883.95,154.977,-354.251,0,0
399185.575,162.082,-360.76,0,0
400006.6,165.033,-366.583,0,0