Folder: ML_Dmg_Mehdi_Dataset/Accelerated corrosion test data/2025-10-23_18-00-04 (part 3)

File: sample_5.csv
Frequency (Hz),Impedance (ohms),Phase (Radians),Temperature (C),Humidity (%)
10000.0,4018.62,-3500.2,0,0
11301.625,3680.36,-3529.26,0,0
12603.25,3374.1,-3391.07,0,0
13904.875,3106.01,-3374.62,0,0
15206.5,2860.32,-3337.97,0,0
16508.125,2646.32,-3250.96,0,0
17809.75,2451.45,-3177.57,0,0
19111.375,2284.54,-3076.26,0,0
20413.0,1980.66,-1173.29,0,0
21714.625,2033.42,-1475.67,0,0
23016.25,1955.65,-1477.4,0,0
24317.875,1906.63,-1599.48,0,0
25619.5,1834.12,-1616.75,0,0
26921.1,1767.19,-1694.81,0,0
28222.7,1694.73,-1719.72,0,0
29524.4,1624.37,-1721.1,0,0
30826,1554.42,-1733.04,0,0
32127.6,1490.18,-1718.01,0,0
33429.2,1424.85,-1726.57,0,0
34730.9,1365.19,-1713.2,0,0
36032.5,1308.48,-1697.77,0,0
37334.1,1250.56,-1695.53,0,0
38635.7,1197.33,-1681.4,0,0
39937.4,1149.69,-1659.72,0,0
41239,1103.04,-1639.58,0,0
42540.6,1054.33,-1631.98,0,0
43842.225,1012.96,-1609.03,0,0
45143.85,974.474,-1584.43,0,0
46445.475,937.116,-1562.04,0,0
47747.1,902.321,-1539.64,0,0
49048.725,867.537,-1520.59,0,0
50350.35,841.292,-1490.69,0,0
51651.975,811.886,-1469.8,0,0
52953.6,779.211,-1454.29,0,0
54255.225,754.27,-1429.62,0,0
55556.85,730.876,-1404.58,0,0
56858.475,706.89,-1384.44,0,0
58160.1,681.127,-1367.97,0,0
59461.7,659.105,-1346.61,0,0
60763.3,636.855,-1326.34,0,0
62065,615.979,-1306.12,0,0
63366.6,594.216,-1289.3,0,0
64668.2,578.261,-1267.15,0,0
65969.8,578.675,-1226.57,0,0
67271.5,545.932,-1226.49,0,0
68573.1,530.517,-1207.93,0,0
69874.7,516.581,-1188.58,0,0
71176.3,501.845,-1172.14,0,0
72478,488.245,-1154.88,0,0
73779.6,475.144,-1138.4,0,0
75081.2,463.409,-1122.6,0,0
76382.825,449.437,-1107.91,0,0
77684.45,437.085,-1091.41,0,0
78986.075,425.961,-1074.8,0,0
80287.7,412.969,-1061.26,0,0
81589.325,402.248,-1045.4,0,0
82890.95,391.271,-1029.55,0,0
84192.575,379.567,-1014.88,0,0
85494.2,370.507,-998.978,0,0
86795.825,360.939,-983.792,0,0
88097.45,351.662,-967.669,0,0
89399.075,343.75,-951.351,0,0
90700.7,335.804,-937.718,0,0
92002.3,328.886,-924.281,0,0
93303.9,321.192,-911.362,0,0
94605.6,313.213,-897.746,0,0
95907.2,305.823,-884.348,0,0
97208.8,298.811,-870.725,0,0
98510.4,291.693,-856.918,0,0
99812.1,285.349,-843.216,0,0
101114,280.58,-829.735,0,0
102415,274.914,-817.729,0,0
103717,268.61,-805.619,0,0
105019,262.555,-793.564,0,0
106320.175,256.121,-781.01,0,0
107621.8,250.511,-767.619,0,0
108923.425,245.563,-754.399,0,0
110225.05,240.263,-741.54,0,0
111526.675,235.515,-728.179,0,0
112828.3,231.134,-714.427,0,0
114129.925,227.484,-701.213,0,0
115431.55,224.111,-688.178,0,0
116733.175,221.051,-674.792,0,0
118034.8,218.912,-661.506,0,0
119336.425,217.535,-648.84,0,0
120638.05,215.85,-637.108,0,0
121939.675,213.344,-625.813,0,0
123241,210.383,-614.216,0,0
124543,207.547,-601.102,0,0
125845,205.869,-588.894,0,0
127146,204.347,-577.166,0,0
128448,202.459,-565.627,0,0
129749,200.106,-553.732,0,0
131051,197.494,-541.035,0,0
132353,194.892,-527.082,0,0
133654,193.727,-512.651,0,0
134956,193.436,-498.033,0,0
136258,194.202,-482.629,0,0
137559,196.102,-468.283,0,0
138860.775,198.716,-454.494,0,0
140162.4,201.206,-441.222,0,0
141464.025,203.922,-428.181,0,0
142765.65,206.302,-415.273,0,0
144067.275,209.052,-401.996,0,0
145368.9,211.376,-388.331,0,0
146670.525,214.308,-373.838,0,0
147972.15,218.314,-358.384,0,0
149273.775,222.829,-343.157,0,0
150575.4,228.032,-325.878,0,0
151877.025,236.335,-307.848,0,0
153178.65,246.868,-290.745,0,0
154480,259.493,-274.215,0,0
155782,275.066,-258.862,0,0
157084,291.528,-247.719,0,0
158385,305.948,-237.295,0,0
159687,321.713,-225.569,0,0
160988,340.49,-215.61,0,0
162290,360.82,-208.531,0,0
163592,380.911,-205.171,0,0
164893,398.561,-204.81,0,0
166195,414.555,-203.904,0,0
167497,430.192,-203.306,0,0
168798,445.649,-203.538,0,0
170100,460.873,-204.119,0,0
171401.375,476.896,-205.173,0,0
172703.0,491.548,-208.587,0,0
174004.625,503.956,-212.631,0,0
175306.25,514.771,-214.888,0,0
176607.875,526.665,-215.705,0,0
177909.5,539.805,-217.439,0,0
179211.125,551.938,-220.841,0,0
180512.75,561.994,-221.579,0,0
181814.375,573.944,-218.717,0,0
183116.0,590.755,-214.697,0,0
184417.625,611.895,-213.289,0,0
185719.25,634.552,-215.474,0,0
187021,657.879,-219.46,0,0
188322,682.734,-224.953,0,0
189624,710.465,-231.786,0,0
190926,741.498,-242.63,0,0
192227,776.833,-261.117,0,0
193529,811.384,-287.99,0,0
194831,842.345,-323.135,0,0
196132,868.29,-365.319,0,0
197434,886.743,-414.818,0,0
198735,895.026,-466.231,0,0
200037,895.289,-519.587,0,0
201339,886.743,-570.742,0,0
202640.35,870.872,-621.578,0,0
203941.975,846.933,-668.209,0,0
205243.6,815.819,-709.382,0,0
206545.225,779.368,-745.124,0,0
207846.85,739.31,-770.651,0,0
209148.475,698.678,-789.522,0,0
210450.1,658.788,-801.67,0,0
211751.725,620.595,-808.081,0,0
213053.35,585.192,-810.152,0,0
214354.975,552.068,-808.318,0,0
215656.6,521.462,-804.026,0,0
216958.225,493.406,-796.929,0,0
218259.85,467.618,-787.833,0,0
219561,444.47,-776.795,0,0
220863,423.877,-764.102,0,0
222165,405.925,-750.652,0,0
223466,391.397,-736.115,0,0
224768,379.019,-722.258,0,0
226070,369.465,-708.445,0,0
227371,362.193,-695.089,0,0
228673,356.589,-682.897,0,0
229974,352.507,-671.834,0,0
231276,349.626,-661.307,0,0
232578,348.062,-651.819,0,0
233879,347.326,-643.503,0,0
235180.95,347.716,-636.288,0,0
236482.575,349.359,-629.774,0,0
237784.2,351.347,-625.587,0,0
239085.825,354.009,-622.757,0,0
240387.45,356.215,-622.066,0,0
241689.075,357.497,-622.833,0,0
242990.7,357.546,-625.099,0,0
244292.325,356.055,-627.505,0,0
245593.95,352.698,-630.07,0,0
246895.575,348.167,-630.97,0,0
248197.2,343.113,-629.985,0,0
249498.825,339.555,-625.962,0,0
250800,342.683,-621.015,0,0
252102,350.36,-623.062,0,0
253404,355.228,-633.38,0,0
254705,353.43,-646.585,0,0
256007,345.696,-659.587,0,0
257309,333.738,-669.022,0,0
258610,319.622,-674.953,0,0
259912,304.996,-677.589,0,0
261213,291.016,-677.426,0,0
262515,277.823,-675.817,0,0
263817,266.178,-672.33,0,0
265118,256.033,-667.684,0,0
266420,246.508,-663.209,0,0
267721.55,238.08,-658.63,0,0
269023.175,230.339,-654.178,0,0
270324.8,222.702,-650.165,0,0
271626.425,214.641,-645.875,0,0
272928.05,206.631,-641.166,0,0
274229.675,198.769,-635.78,0,0
275531.3,191.48,-629.804,0,0
276832.925,184.448,-623.164,0,0
278134.55,178.207,-615.832,0,0
279436.175,173.084,-607.922,0,0
280737.8,169.549,-599.985,0,0
282039.425,167.262,-592.859,0,0
283341,165.384,-586.812,0,0
284643,163.366,-581.551,0,0
285944,161.557,-576.617,0,0
287246,159.875,-571.924,0,0
288548,158.521,-567.624,0,0
289849,156.782,-564.182,0,0
291151,154.46,-561.065,0,0
292452,151.523,-557.657,0,0
293754,148.481,-553.862,0,0
295056,145.211,-549.784,0,0
296357,142.415,-545.077,0,0
297659,140.465,-539.976,0,0
298960.525,139.28,-535.355,0,0
300262.15,138.562,-531.533,0,0
301563.775,137.529,-528.646,0,0
302865.4,136.113,-526.032,0,0
304167.025,134.229,-523.316,0,0
305468.65,131.977,-520.473,0,0
306770.275,129.695,-517.29,0,0
308071.9,127.717,-513.952,0,0
309373.525,125.428,-510.628,0,0
310675.15,123.423,-507.193,0,0
311976.775,121.685,-503.645,0,0
313278.4,119.776,-500.268,0,0
314580,118.012,-496.844,0,0
315882,116.428,-493.306,0,0
317183,115.108,-489.842,0,0
318485,113.871,-486.556,0,0
319787,112.541,-483.357,0,0
321088,111.375,-480.279,0,0
322390,110.117,-477.285,0,0
323691,108.857,-474.462,0,0
324993,107.482,-471.641,0,0
326295,105.886,-468.735,0,0
327596,104.471,-465.693,0,0
328898,102.891,-462.697,0,0
330200,101.808,-459.363,0,0
331501.125,100.685,-456.16,0,0
332802.75,99.4332,-453.041,0,0
334104.375,98.4956,-449.876,0,0
335406.0,97.4752,-446.835,0,0
336707.625,96.4072,-443.782,0,0
338009.25,95.4006,-440.792,0,0
339310.875,94.4251,-437.857,0,0
340612.5,93.574,-434.851,0,0
341914.125,92.896,-431.884,0,0
343215.75,91.9334,-429.149,0,0
344517.375,91.0842,-426.352,0,0
345819.0,90.5357,-423.633,0,0
347121,89.5975,-420.986,0,0
348422,88.9016,-418.31,0,0
349724,88.1061,-415.613,0,0
351025,87.0869,-413.02,0,0
352327,86.275,-410.252,0,0
353629,85.4473,-407.54,0,0
354930,84.6669,-404.712,0,0
356232,84.0315,-401.923,0,0
357534,83.2575,-399.186,0,0
358835,82.6459,-396.388,0,0
360137,81.9781,-393.616,0,0
361438,81.3158,-390.795,0,0
362740.1,80.774,-387.967,0,0
364041.725,80.3048,-385.1,0,0
365343.35,79.7242,-382.326,0,0
366644.975,79.3596,-379.448,0,0
367946.6,79.1524,-376.635,0,0
369248.225,78.9451,-373.859,0,0
370549.85,79.0165,-371.193,0,0
371851.475,79.0264,-368.557,0,0
373153.1,79.1717,-366.078,0,0
374454.725,79.2416,-363.825,0,0
375756.35,79.0737,-361.88,0,0
377057.975,78.8691,-359.865,0,0
378359.6,78.2583,-357.863,0,0
379661,77.6499,-355.573,0,0
380963,77.1023,-352.964,0,0
382264,76.8512,-350.463,0,0
383566,76.4648,-348.112,0,0
384868,75.9782,-345.691,0,0
386169,75.2742,-343.109,0,0
387471,74.7197,-340.363,0,0
388773,74.3809,-337.475,0,0
390074,73.9905,-334.582,0,0
391376,73.8767,-331.599,0,0
392677,73.8489,-328.567,0,0
393979,73.7929,-325.603,0,0
395280.7,73.7581,-322.665,0,0
396582.325,74.1213,-319.551,0,0
397883.95,74.3185,-316.548,0,0
399185.575,74.4466,-313.607,0,0
400006.6,74.7422,-311.715,0,0

File: sample_6.csv
Frequency (Hz),Impedance (ohms),Phase (Radians),Temperature (C),Humidity (%)
10000.0,4155.16,-6667.53,0,0
11301.625,3527.89,-6263.23,0,0
12603.25,3029.82,-5880.02,0,0
13904.875,2630.4,-5533,0,0
15206.5,2303.58,-5210.87,0,0
16508.125,2034.52,-4917.49,0,0
17809.75,1810.88,-4650.52,0,0
19111.375,1623.25,-4406.39,0,0
20413.0,1463.5,-4185.82,0,0
21714.625,1326.81,-3982.24,0,0
23016.25,1210.11,-3793.1,0,0
24317.875,1110.86,-3626.66,0,0
25619.5,1021.48,-3470,0,0
26921.1,943.83,-3323.94,0,0
28222.7,875.869,-3192.12,0,0
29524.4,812.637,-3065.12,0,0
30826,764.724,-2949.36,0,0
32127.6,714.296,-2843.46,0,0
33429.2,673.793,-2746.19,0,0
34730.9,629.306,-2653.64,0,0
36032.5,591.515,-2565.31,0,0
37334.1,557.801,-2479.33,0,0
38635.7,528.947,-2398.42,0,0
39937.4,505.75,-2322.61,0,0
41239,484.123,-2255.24,0,0
42540.6,460.455,-2192.23,0,0
43842.225,439.549,-2125.36,0,0
45143.85,424.883,-2065.49,0,0
46445.475,412.523,-2011.83,0,0
47747.1,397.476,-1962.76,0,0
49048.725,383.263,-1917.04,0,0
50350.35,366.237,-1874.58,0,0
51651.975,347.325,-1829.19,0,0
52953.6,332.874,-1782.83,0,0
54255.225,318.537,-1739.67,0,0
55556.85,308.582,-1697.05,0,0
56858.475,298.885,-1654.54,0,0
58160.1,296.187,-1617.94,0,0
59461.7,288.592,-1589.16,0,0
60763.3,276.186,-1559.33,0,0
62065,260.745,-1524.84,0,0
63366.6,256.177,-1486.74,0,0
64668.2,250.066,-1460.22,0,0
65969.8,242.252,-1429.01,0,0
67271.5,236.603,-1400.98,0,0
68573.1,230.266,-1374.13,0,0
69874.7,224.534,-1348.48,0,0
71176.3,217.61,-1323.94,0,0
72478,210.818,-1298.74,0,0
73779.6,204.643,-1274.56,0,0
75081.2,198.825,-1250.89,0,0
76382.825,192.618,-1227.92,0,0
77684.45,186.455,-1204.81,0,0
78986.075,180.714,-1181.7,0,0
80287.7,175.357,-1158.65,0,0
81589.325,171.047,-1135.38,0,0
82890.95,167.591,-1113.16,0,0
84192.575,164.414,-1090.86,0,0
85494.2,163.016,-1068.74,0,0
86795.825,162.473,-1048.71,0,0
88097.45,161.901,-1029.53,0,0
89399.075,162.516,-1010.8,0,0
90700.7,163.21,-995.895,0,0
92002.3,160.158,-980.421,0,0
93303.9,158.374,-964.32,0,0
94605.6,157.393,-947.501,0,0
95907.2,157.056,-931.96,0,0
97208.8,156.064,-918.704,0,0
98510.4,153.671,-904.034,0,0
99812.1,153.28,-889.109,0,0
101114,153.024,-876.397,0,0
102415,151.039,-864.289,0,0
103717,148.723,-852.981,0,0
105019,144.056,-842.282,0,0
106320.175,135.549,-827.765,0,0
107621.8,130.948,-806.637,0,0
108923.425,131.825,-786.631,0,0
110225.05,134.94,-769.479,0,0
111526.675,140.299,-753.376,0,0
112828.3,147.323,-743.105,0,0
114129.925,149.313,-735.242,0,0
115431.55,150.544,-725.435,0,0
116733.175,153.354,-719.786,0,0
118034.8,146.829,-714.711,0,0
119336.425,139.772,-700.837,0,0
120638.05,139.104,-684.144,0,0
121939.675,142.515,-672.361,0,0
123241,141.938,-662.803,0,0
124543,141.187,-651.974,0,0
125845,139.533,-641.155,0,0
127146,137.5,-628.613,0,0
128448,137.058,-613.819,0,0
129749,139.715,-600.365,0,0
131051,141.953,-588.445,0,0
132353,144.415,-576.376,0,0
133654,147.482,-565.014,0,0
134956,150.592,-554.13,0,0
136258,154.275,-543.83,0,0
137559,157.878,-534.939,0,0
138860.775,160.317,-526.648,0,0
140162.4,161.742,-518.001,0,0
141464.025,163.631,-508.613,0,0
142765.65,164.608,-500.301,0,0
144067.275,165.068,-489.443,0,0
145368.9,168.217,-479.237,0,0
146670.525,169.867,-470.788,0,0
147972.15,169.662,-461.548,0,0
149273.775,169.304,-449.542,0,0
150575.4,170.726,-436.132,0,0
151877.025,173.654,-421.902,0,0
153178.65,180.274,-408.607,0,0
154480,185.283,-398.46,0,0
155782,189.548,-385.549,0,0
157084,197.64,-374.302,0,0
158385,203.512,-365.991,0,0
159687,207.575,-355.674,0,0
160988,211.919,-344.793,0,0
162290,216.914,-332.755,0,0
163592,223.201,-320.711,0,0
164893,228.71,-309.561,0,0
166195,233.018,-296.49,0,0
167497,238.783,-280.859,0,0
168798,247.066,-264.688,0,0
170100,256.284,-249.101,0,0
171401.375,265.953,-232.782,0,0
172703.0,276.055,-214.869,0,0
174004.625,287.726,-194.846,0,0
175306.25,302.556,-172.426,0,0
176607.875,321.142,-148.724,0,0
177909.5,344.511,-124.146,0,0
179211.125,373.121,-99.6619,0,0
180512.75,407.715,-77.5916,0,0
181814.375,445.478,-58.3187,0,0
183116.0,486.666,-40.3412,0,0
184417.625,533.625,-21.7798,0,0
185719.25,589.294,-4.78988,0,0
187021,656.724,8.43412,0,0
188322,738.58,11.6571,0,0
189624,833.773,-3.95828,0,0
190926,934.044,-46.2981,0,0
192227,1029.48,-117.175,0,0
193529,1109.84,-215.638,0,0
194831,1165.68,-336.254,0,0
196132,1189.36,-470.208,0,0
197434,1176.98,-604.773,0,0
198735,1132.88,-726.165,0,0
200037,1067.26,-827.218,0,0
201339,987.243,-906.953,0,0
202640.35,899.192,-963.017,0,0
203941.975,812.116,-996.025,0,0
205243.6,731.572,-1012.08,0,0
206545.225,658.847,-1015.69,0,0
207846.85,594.473,-1010.43,0,0
209148.475,538.676,-999.541,0,0
210450.1,489.79,-985.942,0,0
211751.725,445.159,-970.815,0,0
213053.35,405.165,-951.593,0,0
214354.975,370.73,-930.845,0,0
215656.6,340.476,-908.587,0,0
216958.225,315.505,-886.261,0,0
218259.85,293.698,-864.513,0,0
219561,274.627,-843.026,0,0
220863,258.246,-821.672,0,0
222165,244.269,-800.437,0,0
223466,232.801,-779.371,0,0
224768,223.874,-758.478,0,0
226070,218.137,-738.749,0,0
227371,213.885,-721.062,0,0
228673,210.208,-704.734,0,0
229974,207.11,-688.601,0,0
231276,205.391,-672.281,0,0
232578,205.38,-656.266,0,0
233879,207.221,-640.802,0,0
235180.95,211.029,-626.099,0,0
236482.575,216.884,-612.833,0,0
237784.2,224.573,-601.067,0,0
239085.825,234.189,-591.367,0,0
240387.45,245.266,-584.335,0,0
241689.075,257.292,-580.328,0,0
242990.7,269.706,-579.566,0,0
244292.325,282.143,-582.65,0,0
245593.95,292.531,-590.598,0,0
246895.575,298.25,-600.627,0,0
248197.2,300.996,-610.645,0,0
249498.825,301.629,-619.89,0,0
250800,303.209,-629.139,0,0
252102,302.772,-642.601,0,0
253404,297.604,-657.179,0,0
254705,287.537,-671.301,0,0
256007,272.812,-682.123,0,0
257309,256.132,-688.533,0,0
258610,239.405,-690.893,0,0
259912,223.663,-690.377,0,0
261213,208.846,-687.73,0,0
262515,195.53,-683.362,0,0
263817,183.595,-677.858,0,0
265118,173.008,-671.704,0,0
266420,163.54,-665.195,0,0
267721.55,155.094,-658.435,0,0
269023.175,147.457,-651.657,0,0
270324.8,140.651,-644.906,0,0
271626.425,134.189,-638.06,0,0
272928.05,128.439,-631.202,0,0
274229.675,123.155,-624.426,0,0
275531.3,118.284,-617.712,0,0
276832.925,113.806,-610.946,0,0
278134.55,109.753,-604.174,0,0
279436.175,106.182,-597.253,0,0
280737.8,103.548,-590.299,0,0
282039.425,101.641,-584.373,0,0
283341,99.3995,-578.994,0,0
284643,97.034,-573.481,0,0
285944,95.4758,-568.197,0,0
287246,94.1167,-563.746,0,0
288548,91.8699,-559.576,0,0
289849,89.614,-555.072,0,0
291151,87.4683,-550.507,0,0
292452,85.6548,-546.115,0,0
293754,83.5664,-542.079,0,0
295056,81.1116,-537.848,0,0
296357,78.8172,-532.97,0,0
297659,77.0303,-527.836,0,0
298960.525,76.1303,-523.02,0,0
300262.15,75.1002,-519.12,0,0
301563.775,73.7166,-515.282,0,0
302865.4,72.2229,-511.229,0,0
304167.025,70.92,-506.983,0,0
305468.65,69.9496,-503.022,0,0
306770.275,68.9408,-499.277,0,0
308071.9,67.6826,-495.62,0,0
309373.525,66.537,-491.806,0,0
310675.15,65.472,-488.163,0,0
311976.775,64.467,-484.501,0,0
313278.4,63.3567,-480.969,0,0
314580,62.331,-477.344,0,0
315882,61.3815,-473.699,0,0
317183,60.4072,-470.147,0,0
318485,59.5685,-466.621,0,0
319787,58.6907,-463.117,0,0
321088,57.9658,-459.633,0,0
322390,57.3051,-456.203,0,0
323691,56.6312,-452.895,0,0
324993,55.9643,-449.652,0,0
326295,55.2312,-446.396,0,0
327596,54.4765,-443.116,0,0
328898,53.832,-439.78,0,0
330200,53.2917,-436.436,0,0
331501.125,52.797,-433.113,0,0
332802.75,52.4184,-429.934,0,0
334104.375,52.0136,-426.781,0,0
335406.0,51.6335,-423.657,0,0
336707.625,51.3335,-420.573,0,0
338009.25,50.938,-417.611,0,0
339310.875,50.6462,-414.512,0,0
340612.5,50.3552,-411.466,0,0
341914.125,50.141,-408.399,0,0
343215.75,50.0776,-405.475,0,0
344517.375,49.9913,-402.634,0,0
345819.0,49.7655,-399.79,0,0
347121,49.6639,-396.892,0,0
348422,49.7313,-393.998,0,0
349724,49.8185,-391.201,0,0
351025,50.0369,-388.544,0,0
352327,50.2453,-385.998,0,0
353629,50.4131,-383.625,0,0
354930,50.5051,-381.292,0,0
356232,50.5264,-379.098,0,0
357534,50.428,-376.889,0,0
358835,50.2917,-374.594,0,0
360137,50.1341,-372.347,0,0
361438,49.9715,-370.007,0,0
362740.1,49.751,-367.649,0,0
364041.725,49.6103,-365.239,0,0
365343.35,49.5179,-362.861,0,0
366644.975,49.4605,-360.448,0,0
367946.6,49.4494,-358.101,0,0
369248.225,49.4047,-355.783,0,0
370549.85,49.3768,-353.433,0,0
371851.475,49.4812,-351.133,0,0
373153.1,49.6288,-348.99,0,0
374454.725,49.645,-347.075,0,0
375756.35,49.3772,-345.107,0,0
377057.975,49.0099,-342.903,0,0
378359.6,48.654,-340.587,0,0
379661,48.3979,-338.148,0,0
380963,48.1548,-335.619,0,0
382264,48.1296,-332.98,0,0
383566,48.3502,-330.538,0,0
384868,48.3606,-328.383,0,0
386169,48.2311,-326.002,0,0
387471,48.14,-323.568,0,0
388773,48.0907,-321.082,0,0
390074,48.101,-318.546,0,0
391376,48.1462,-316.01,0,0
392677,48.2665,-313.461,0,0
393979,48.3448,-310.901,0,0
395280.7,48.5139,-308.281,0,0
396582.325,48.6679,-305.666,0,0
397883.95,48.9067,-302.982,0,0
399185.575,49.1778,-300.309,0,0
400006.6,49.3422,-298.629,0,0