Folder: ML_Dmg_Mehdi_Dataset/Accelerated corrosion test data/2025-10-20_06-00-03 (part 3)

File: sample_7.csv
Frequency (Hz),Impedance (ohms),Phase (Radians),Temperature (C),Humidity (%)
10000.0,274.167,-12155.4,0,0
11301.625,246.29,-10751.9,0,0
12603.25,263.365,-9703.53,0,0
13904.875,207.618,-8800.87,0,0
15206.5,197.996,-8054.13,0,0
16508.125,170.746,-7411.97,0,0
17809.75,165.752,-6853.22,0,0
19111.375,183.909,-6414.17,0,0
20413.0,173.699,-6009.38,0,0
21714.625,157.389,-5672.42,0,0
23016.25,129.335,-5346.05,0,0
24317.875,121.579,-5051.39,0,0
25619.5,117.637,-4785.35,0,0
26921.1,119.669,-4539.44,0,0
28222.7,178.644,-4309.61,0,0
29524.4,141.439,-4204.07,0,0
30826,131.256,-4009.68,0,0
32127.6,118.302,-3861.26,0,0
33429.2,101.452,-3710.7,0,0
34730.9,91.4122,-3565.03,0,0
36032.5,87.8366,-3430.07,0,0
37334.1,85.306,-3305.72,0,0
38635.7,85.9815,-3187.67,0,0
39937.4,100.482,-3087.07,0,0
41239,87.1508,-3001.51,0,0
42540.6,78.9337,-2904.69,0,0
43842.225,78.0973,-2814.76,0,0
45143.85,79.9425,-2737.26,0,0
46445.475,77.2249,-2664.01,0,0
47747.1,69.7534,-2587.17,0,0
49048.725,67.3566,-2516.33,0,0
50350.35,65.5408,-2448.75,0,0
51651.975,63.9132,-2384.77,0,0
52953.6,63.0946,-2324.03,0,0
54255.225,61.878,-2267.37,0,0
55556.85,60.338,-2212.17,0,0
56858.475,59.5828,-2159.37,0,0
58160.1,58.5798,-2108.91,0,0
59461.7,58.7621,-2061.31,0,0
60763.3,58.3042,-2017.06,0,0
62065,56.2699,-1973.41,0,0
63366.6,55.0351,-1930.42,0,0
64668.2,54.3497,-1889.54,0,0
65969.8,54.3223,-1850.87,0,0
67271.5,52.5826,-1813.97,0,0
68573.1,51.5236,-1777.1,0,0
69874.7,50.8152,-1741.68,0,0
71176.3,50.6276,-1707.79,0,0
72478,49.716,-1675.31,0,0
73779.6,48.755,-1643.4,0,0
75081.2,48.255,-1612.41,0,0
76382.825,47.664,-1582.61,0,0
77684.45,47.4145,-1553.49,0,0
78986.075,47.1203,-1525.47,0,0
80287.7,46.9296,-1498.36,0,0
81589.325,46.5737,-1472.03,0,0
82890.95,46.3211,-1446.14,0,0
84192.575,46.288,-1420.97,0,0
85494.2,46.5393,-1396.78,0,0
86795.825,46.5577,-1373.28,0,0
88097.45,46.6826,-1350.6,0,0
89399.075,46.011,-1328.31,0,0
90700.7,46.0817,-1305.85,0,0
92002.3,46.3045,-1284.07,0,0
93303.9,46.5924,-1262.13,0,0
94605.6,50.4522,-1242.02,0,0
95907.2,49.1751,-1225.4,0,0
97208.8,48.313,-1205.05,0,0
98510.4,49.2738,-1185.8,0,0
99812.1,48.9858,-1167.33,0,0
101114,50.0698,-1147.84,0,0
102415,52.01,-1129.63,0,0
103717,54.7616,-1112.7,0,0
105019,55.8309,-1097.74,0,0
106320.175,55.0696,-1081.97,0,0
107621.8,55.6971,-1065.1,0,0
108923.425,56.8097,-1048.54,0,0
110225.05,57.4313,-1031.73,0,0
111526.675,60.4201,-1014.4,0,0
112828.3,65.0556,-997.373,0,0
114129.925,70.6664,-983.433,0,0
115431.55,77.3626,-970.495,0,0
116733.175,86.1526,-961.047,0,0
118034.8,91.7415,-957.28,0,0
119336.425,94.6876,-955.581,0,0
120638.05,88.0927,-956.854,0,0
121939.675,75.8321,-947.545,0,0
123241,67.9936,-934.706,0,0
124543,63.0293,-919.763,0,0
125845,58.5666,-906.241,0,0
127146,54.7534,-891.338,0,0
128448,52.7939,-875.823,0,0
129749,51.1185,-861.298,0,0
131051,50.0334,-846.92,0,0
132353,48.6897,-831.513,0,0
133654,49.1242,-815.64,0,0
134956,52.0708,-800.801,0,0
136258,56.2958,-788.773,0,0
137559,56.1251,-780.729,0,0
138860.775,53.5297,-768.047,0,0
140162.4,53.2159,-753.621,0,0
141464.025,53.3784,-740.124,0,0
142765.65,54.3744,-725.481,0,0
144067.275,57.1818,-711.444,0,0
145368.9,59.6336,-699.815,0,0
146670.525,60.403,-686.873,0,0
147972.15,61.7965,-674.258,0,0
149273.775,62.1256,-661.521,0,0
150575.4,61.7088,-646.389,0,0
151877.025,62.7993,-628.967,0,0
153178.65,66.1269,-610.632,0,0
154480,71.3515,-592.12,0,0
155782,79.038,-572.989,0,0
157084,89.5829,-554.959,0,0
158385,103.307,-539.649,0,0
159687,114.893,-530.301,0,0
160988,118.78,-517.734,0,0
162290,124.775,-495.155,0,0
163592,139.794,-470.153,0,0
164893,163.071,-447.66,0,0
166195,188.164,-423.651,0,0
167497,230.884,-398.743,0,0
168798,291.251,-390.365,0,0
170100,354.921,-410.312,0,0
171401.375,411.129,-456.143,0,0
172703.0,442.009,-525.984,0,0
174004.625,428.921,-606.118,0,0
175306.25,373.028,-644.65,0,0
176607.875,337.728,-637.617,0,0
177909.5,334.457,-632.906,0,0
179211.125,345.666,-660.686,0,0
180512.75,311.842,-691.677,0,0
181814.375,274.672,-705.831,0,0
183116.0,229.645,-704.834,0,0
184417.625,194.944,-682.754,0,0
185719.25,173.446,-659.304,0,0
187021,155.536,-632.679,0,0
188322,149.415,-605.868,0,0
189624,143.417,-587.338,0,0
190926,136.241,-564.908,0,0
192227,134.338,-539.52,0,0
193529,135.627,-514.229,0,0
194831,141.757,-489.598,0,0
196132,152.106,-467.662,0,0
197434,164.387,-449.296,0,0
198735,174.5,-434.089,0,0
200037,182.699,-416.246,0,0
201339,194.576,-394.36,0,0
202640.35,212.342,-369.717,0,0
203941.975,237.607,-348.33,0,0
205243.6,268.089,-329.606,0,0
206545.225,308.687,-318.444,0,0
207846.85,343.629,-320.074,0,0
209148.475,377.43,-313.474,0,0
210450.1,433.724,-315.045,0,0
211751.725,486.599,-352.248,0,0
213053.35,514.943,-397.654,0,0
214354.975,533.965,-439.053,0,0
215656.6,542.747,-487.977,0,0
216958.225,543.825,-535.267,0,0
218259.85,523.719,-585.318,0,0
219561,484.699,-622.55,0,0
220863,441.359,-625.796,0,0
222165,417.697,-616.36,0,0
223466,408.743,-607.41,0,0
224768,403.689,-603.739,0,0
226070,402.01,-596.739,0,0
227371,411.367,-596.85,0,0
228673,421.349,-605.852,0,0
229974,427.39,-624.587,0,0
231276,428.162,-649.102,0,0
232578,419.397,-674.164,0,0
233879,400.442,-706.516,0,0
235180.95,357.807,-724.872,0,0
236482.575,320.29,-717.504,0,0
237784.2,295.878,-708.051,0,0
239085.825,272.314,-690.4,0,0
240387.45,267.425,-671.976,0,0
241689.075,260.086,-669.848,0,0
242990.7,242.146,-660.915,0,0
244292.325,233.539,-640.903,0,0
245593.95,237.647,-627.173,0,0
246895.575,235.04,-623.376,0,0
248197.2,227.996,-614.266,0,0
249498.825,224.626,-600.889,0,0
250800,226.163,-586.046,0,0
252102,233.895,-572.343,0,0
253404,248.419,-564.469,0,0
254705,262.924,-568.191,0,0
256007,269.112,-578.063,0,0
257309,267.132,-586.597,0,0
258610,261.974,-588.974,0,0
259912,260.341,-590.6,0,0
261213,255.434,-590.708,0,0
262515,252.883,-586.658,0,0
263817,258.072,-583.664,0,0
265118,261.665,-589.769,0,0
266420,260.572,-594.187,0,0
267721.55,259.821,-600.277,0,0
269023.175,253.484,-606.866,0,0
270324.8,247.221,-606.445,0,0
271626.425,249.485,-604.694,0,0
272928.05,258.653,-616.964,0,0
274229.675,249.623,-644.54,0,0
275531.3,220.377,-661.968,0,0
276832.925,183.963,-659.868,0,0
278134.55,155.748,-641.284,0,0
279436.175,141.857,-617.321,0,0
280737.8,137.386,-596.425,0,0
282039.425,136.809,-582.191,0,0
283341,133.219,-568.073,0,0
284643,134.14,-550.635,0,0
285944,141.648,-536.558,0,0
287246,150.26,-529.424,0,0
288548,154.293,-526.706,0,0
289849,154.512,-520.548,0,0
291151,157.136,-510.961,0,0
292452,163.234,-502.668,0,0
293754,170.675,-495.173,0,0
295056,179.378,-489.114,0,0
296357,190.355,-483.629,0,0
297659,203.983,-480.687,0,0
298960.525,219.465,-481.654,0,0
300262.15,236.385,-486.401,0,0
301563.775,255.333,-497.678,0,0
302865.4,273.384,-521.908,0,0
304167.025,273.729,-557.083,0,0
305468.65,258.483,-583.532,0,0
306770.275,237.972,-602.143,0,0
308071.9,214.298,-611.725,0,0
309373.525,191.017,-613.586,0,0
310675.15,171.785,-608.636,0,0
311976.775,157.386,-602.119,0,0
313278.4,145.283,-595.473,0,0
314580,133.953,-587.391,0,0
315882,125.591,-577.295,0,0
317183,120.777,-567.71,0,0
318485,117.469,-559.841,0,0
319787,115.117,-552.567,0,0
321088,113.829,-546.898,0,0
322390,112.158,-542.17,0,0
323691,110.582,-537.835,0,0
324993,108.955,-534,0,0
326295,107.727,-530.1,0,0
327596,107.052,-527.681,0,0
328898,104.969,-526.411,0,0
330200,102.051,-524.808,0,0
331501.125,98.4502,-523.323,0,0
332802.75,93.5476,-521.566,0,0
334104.375,87.8956,-518.245,0,0
335406.0,82.6086,-513.603,0,0
336707.625,77.6804,-508.399,0,0
338009.25,73.3774,-502.035,0,0
339310.875,70.208,-495.411,0,0
340612.5,67.6022,-488.732,0,0
341914.125,65.5662,-481.752,0,0
343215.75,64.64,-474.677,0,0
344517.375,64.7866,-467.804,0,0
345819.0,65.9315,-462.24,0,0
347121,66.6474,-458.261,0,0
348422,65.8592,-454.647,0,0
349724,64.4204,-449.703,0,0
351025,63.4305,-443.964,0,0
352327,63.436,-437.305,0,0
353629,65.1533,-431.098,0,0
354930,67.7421,-426.377,0,0
356232,70.1482,-423.168,0,0
357534,70.8597,-420.989,0,0
358835,69.8173,-417.814,0,0
360137,68.9786,-412.637,0,0
361438,69.6297,-406.65,0,0
362740.1,71.5962,-400.747,0,0
364041.725,74.5636,-395.576,0,0
365343.35,78.2177,-391.325,0,0
366644.975,81.9078,-388.499,0,0
367946.6,84.8657,-386.046,0,0
369248.225,88.0167,-383.98,0,0
370549.85,90.7959,-383.084,0,0
371851.475,91.688,-382.541,0,0
373153.1,91.7865,-380.327,0,0
374454.725,92.8926,-377.132,0,0
375756.35,94.8589,-374.417,0,0
377057.975,96.5254,-372.395,0,0
378359.6,97.4556,-369.941,0,0
379661,99.0508,-366.656,0,0
380963,101.275,-363.845,0,0
382264,103.589,-361.09,0,0
383566,106.223,-358.665,0,0
384868,108.662,-356.332,0,0
386169,111.079,-354.077,0,0
387471,113.585,-351.505,0,0
388773,116.076,-348.355,0,0
390074,120.422,-344.586,0,0
391376,125.771,-342.456,0,0
392677,130.985,-341.061,0,0
393979,136.038,-340.263,0,0
395280.7,140.961,-338.81,0,0
396582.325,147.648,-336.886,0,0
397883.95,157.214,-335.923,0,0
399185.575,169.733,-338.677,0,0
400006.6,178.245,-343.896,0,0

File: sample_8.csv
Frequency (Hz),Impedance (ohms),Phase (Radians),Temperature (C),Humidity (%)
10000.0,303.941,-11049.6,0,0
11301.625,269.788,-9792.13,0,0
12603.25,248.83,-8793.19,0,0
13904.875,221.292,-7986.27,0,0
15206.5,201.189,-7307.6,0,0
16508.125,185.622,-6737.12,0,0
17809.75,172.557,-6246.86,0,0
19111.375,164.811,-5821.13,0,0
20413.0,158.664,-5457.31,0,0
21714.625,147.247,-5135.33,0,0
23016.25,141.947,-4850.21,0,0
24317.875,130.198,-4591.42,0,0
25619.5,123.665,-4356.36,0,0
26921.1,118.651,-4144.31,0,0
28222.7,116.164,-3953.16,0,0
29524.4,112.42,-3779.41,0,0
30826,108.309,-3620.57,0,0
32127.6,104.528,-3471.71,0,0
33429.2,104.529,-3333.61,0,0
34730.9,105.797,-3208.33,0,0
36032.5,109.164,-3097.13,0,0
37334.1,105.349,-2997.3,0,0
38635.7,94.8389,-2899.74,0,0
39937.4,87.4209,-2802.09,0,0
41239,84.6804,-2711.18,0,0
42540.6,81.5498,-2625.63,0,0
43842.225,80.7346,-2547.79,0,0
45143.85,76.6011,-2472.66,0,0
46445.475,73.6687,-2400.94,0,0
47747.1,71.6993,-2333.24,0,0
49048.725,69.6687,-2269.16,0,0
50350.35,67.7936,-2207.78,0,0
51651.975,66.718,-2149.22,0,0
52953.6,66.3595,-2094.03,0,0
54255.225,65.4493,-2043.6,0,0
55556.85,62.386,-1994.07,0,0
56858.475,60.3969,-1944.93,0,0
58160.1,59.4583,-1898.08,0,0
59461.7,58.5987,-1853.99,0,0
60763.3,57.4481,-1810.83,0,0
62065,56.8578,-1769.86,0,0
63366.6,57.3769,-1730.16,0,0
64668.2,57.3908,-1693.72,0,0
65969.8,56.6654,-1658.18,0,0
67271.5,54.9814,-1623.45,0,0
68573.1,53.8958,-1589.46,0,0
69874.7,53.6171,-1555.9,0,0
71176.3,53.6555,-1524.58,0,0
72478,53.4178,-1494.64,0,0
73779.6,52.6614,-1465.17,0,0
75081.2,51.8382,-1436.34,0,0
76382.825,51.5166,-1408.24,0,0
77684.45,51.0927,-1381.27,0,0
78986.075,50.4694,-1354.8,0,0
80287.7,49.8326,-1328.59,0,0
81589.325,49.9697,-1302.52,0,0
82890.95,50.7191,-1277.48,0,0
84192.575,52.19,-1253.91,0,0
85494.2,51.5086,-1231.84,0,0
86795.825,51.3577,-1208.05,0,0
88097.45,52.1047,-1185.21,0,0
89399.075,52.7739,-1162.47,0,0
90700.7,54.912,-1139.32,0,0
92002.3,58.9506,-1119.38,0,0
93303.9,60.5299,-1099.51,0,0
94605.6,63.0099,-1080.96,0,0
95907.2,64.5637,-1061.27,0,0
97208.8,67.8459,-1041.67,0,0
98510.4,72.8273,-1022.96,0,0
99812.1,77.9697,-1007.61,0,0
101114,83.4426,-993.31,0,0
102415,87.1621,-982.4,0,0
103717,87.5415,-971.1,0,0
105019,86.5804,-959.551,0,0
106320.175,85.5619,-945.053,0,0
107621.8,85.5415,-931.512,0,0
108923.425,85.378,-916.329,0,0
110225.05,87.4004,-902.939,0,0
111526.675,88.127,-890.372,0,0
112828.3,89.0893,-878.419,0,0
114129.925,88.9021,-866.523,0,0
115431.55,89.1126,-854.742,0,0
116733.175,87.5705,-842.765,0,0
118034.8,87.2922,-829.815,0,0
119336.425,87.325,-817.697,0,0
120638.05,86.3525,-805.628,0,0
121939.675,85.9682,-793.215,0,0
123241,85.3952,-781.117,0,0
124543,84.3937,-769.086,0,0
125845,82.8903,-756.361,0,0
127146,81.701,-742.748,0,0
128448,81.2696,-728.758,0,0
129749,81.0141,-715.011,0,0
131051,81.9764,-700.265,0,0
132353,83.134,-687.26,0,0
133654,83.6075,-674.044,0,0
134956,84.5288,-659.583,0,0
136258,87.0877,-646.398,0,0
137559,86.9671,-634.135,0,0
138860.775,86.532,-618.419,0,0
140162.4,88.5636,-602.518,0,0
141464.025,90.7965,-586.605,0,0
142765.65,93.3388,-569.66,0,0
144067.275,97.98,-551.938,0,0
145368.9,104.235,-533.518,0,0
146670.525,112.654,-515.586,0,0
147972.15,122.193,-500.098,0,0
149273.775,132.118,-480.353,0,0
150575.4,150.4,-460.049,0,0
151877.025,177.166,-449.774,0,0
153178.65,198.191,-451.5,0,0
154480,209.627,-455.173,0,0
155782,223.425,-454.893,0,0
157084,226.083,-468.15,0,0
158385,221.585,-460.373,0,0
159687,228.728,-457.234,0,0
160988,222.625,-456.821,0,0
162290,224.524,-439.673,0,0
163592,235.404,-434.134,0,0
164893,241.698,-431.094,0,0
166195,242.942,-434.993,0,0
167497,233.173,-431.143,0,0
168798,223.499,-418.577,0,0
170100,217.232,-397.49,0,0
171401.375,216.497,-373.365,0,0
172703.0,222.728,-345.705,0,0
174004.625,234.781,-320.646,0,0
175306.25,245.831,-299.476,0,0
176607.875,259.816,-270.961,0,0
177909.5,277.541,-243.03,0,0
179211.125,306.51,-209.439,0,0
180512.75,344.229,-182.936,0,0
181814.375,388.982,-160.244,0,0
183116.0,445.155,-151.798,0,0
184417.625,488.05,-154.056,0,0
185719.25,542.634,-151.995,0,0
187021,595.108,-169.533,0,0
188322,636.951,-192.054,0,0
189624,673.26,-215.926,0,0
190926,706.948,-232.181,0,0
192227,750.845,-256.341,0,0
193529,791.914,-267.789,0,0
194831,869.667,-296.297,0,0
196132,948.775,-367.219,0,0
197434,1004.16,-482.167,0,0
198735,1006.45,-622.21,0,0
200037,947.578,-747.373,0,0
201339,862.575,-816.7,0,0
202640.35,774.702,-868.849,0,0
203941.975,684.705,-871.054,0,0
205243.6,620.233,-857.866,0,0
206545.225,571.887,-825.581,0,0
207846.85,556.574,-793.593,0,0
209148.475,551.702,-779.378,0,0
210450.1,548.17,-766.56,0,0
211751.725,557.399,-762.735,0,0
213053.35,564.793,-775.414,0,0
214354.975,561.788,-794.158,0,0
215656.6,554.877,-812.933,0,0
216958.225,542.303,-833.577,0,0
218259.85,525.141,-854.794,0,0
219561,498.376,-875.576,0,0
220863,463.757,-887.288,0,0
222165,429.847,-885.578,0,0
223466,402.976,-875.67,0,0
224768,387.204,-864.842,0,0
226070,377.959,-860.602,0,0
227371,365.877,-863.71,0,0
228673,348.348,-865.03,0,0
229974,333.094,-867.229,0,0
231276,311.545,-871.265,0,0
232578,285.442,-870.19,0,0
233879,257.043,-863.437,0,0
235180.95,230.162,-847.291,0,0
236482.575,211.253,-825.967,0,0
237784.2,198.932,-804.56,0,0
239085.825,191.72,-783.598,0,0
240387.45,190.921,-766.825,0,0
241689.075,190.898,-757.122,0,0
242990.7,184.827,-749.714,0,0
244292.325,177.918,-738.859,0,0
245593.95,173.05,-726.878,0,0
246895.575,170.908,-714.442,0,0
248197.2,168.787,-704.543,0,0
249498.825,167.056,-693.784,0,0
250800,167.359,-683.142,0,0
252102,170.217,-674.079,0,0
253404,173.835,-669.188,0,0
254705,173.784,-667.761,0,0
256007,169.337,-664.985,0,0
257309,163.227,-658.072,0,0
258610,159.871,-646.833,0,0
259912,161.458,-635.479,0,0
261213,164.671,-627.306,0,0
262515,168.102,-620.667,0,0
263817,170.337,-613.351,0,0
265118,174.004,-604.451,0,0
266420,182.078,-593.7,0,0
267721.55,198.007,-585.485,0,0
269023.175,218.698,-587.453,0,0
270324.8,237.716,-598.196,0,0
271626.425,251.879,-620.839,0,0
272928.05,254.235,-649.367,0,0
274229.675,240.039,-679.874,0,0
275531.3,211.956,-696.442,0,0
276832.925,184.62,-698.61,0,0
278134.55,161.845,-692.829,0,0
279436.175,143.97,-681.992,0,0
280737.8,133.035,-668.201,0,0
282039.425,127.927,-656.669,0,0
283341,124.816,-648.14,0,0
284643,121.429,-640.176,0,0
285944,121.187,-632.044,0,0
287246,124.617,-627.454,0,0
288548,127.175,-631.013,0,0
289849,121.058,-637.332,0,0
291151,109.29,-638.011,0,0
292452,98.1615,-634.478,0,0
293754,87.9775,-628.045,0,0
295056,79.4661,-619.428,0,0
296357,73.5234,-609.875,0,0
297659,69.169,-600.834,0,0
298960.525,65.6466,-591.615,0,0
300262.15,63.4102,-582.15,0,0
301563.775,62.7256,-572.897,0,0
302865.4,63.7791,-564.465,0,0
304167.025,65.7189,-557.615,0,0
305468.65,67.9549,-552.094,0,0
306770.275,70.252,-548.096,0,0
308071.9,72.0029,-545.103,0,0
309373.525,72.9756,-543.655,0,0
310675.15,71.9127,-541.797,0,0
311976.775,70.9651,-539.179,0,0
313278.4,69.8578,-536.881,0,0
314580,68.1602,-534.266,0,0
315882,66.1654,-531.132,0,0
317183,64.6918,-527.397,0,0
318485,63.5678,-523.864,0,0
319787,62.6598,-520.117,0,0
321088,62.5185,-517.005,0,0
322390,61.9626,-514.638,0,0
323691,60.8709,-512.705,0,0
324993,58.7416,-510.616,0,0
326295,56.2816,-507.546,0,0
327596,54.3137,-504.056,0,0
328898,52.4643,-500.617,0,0
330200,50.446,-496.821,0,0
331501.125,48.6414,-492.724,0,0
332802.75,47.2247,-488.261,0,0
334104.375,46.3626,-483.482,0,0
335406.0,46.349,-478.91,0,0
336707.625,46.8806,-475.273,0,0
338009.25,46.9591,-472.431,0,0
339310.875,46.398,-469.82,0,0
340612.5,45.4289,-466.934,0,0
341914.125,44.1229,-463.649,0,0
343215.75,42.9446,-459.913,0,0
344517.375,42.09,-455.781,0,0
345819.0,41.6927,-451.444,0,0
347121,41.6792,-447.207,0,0
348422,42.023,-443.086,0,0
349724,42.5762,-439.105,0,0
351025,43.5638,-435.238,0,0
352327,44.8218,-431.881,0,0
353629,46.1622,-428.964,0,0
354930,47.3439,-426.403,0,0
356232,48.3666,-424.12,0,0
357534,49.1323,-422,0,0
358835,49.8289,-419.871,0,0
360137,50.4415,-417.735,0,0
361438,51.1033,-415.651,0,0
362740.1,51.6801,-413.823,0,0
364041.725,52.0973,-412.082,0,0
365343.35,52.4011,-410.325,0,0
366644.975,52.568,-408.568,0,0
367946.6,52.6386,-406.665,0,0
369248.225,52.7421,-404.463,0,0
370549.85,53.5964,-402.187,0,0
371851.475,54.6605,-400.907,0,0
373153.1,55.2382,-400.222,0,0
374454.725,55.0069,-399.699,0,0
375756.35,54.0658,-398.703,0,0
377057.975,53.2195,-397.062,0,0
378359.6,52.6271,-395.619,0,0
379661,51.2837,-393.785,0,0
380963,50.9368,-390.83,0,0
382264,51.5955,-389.247,0,0
383566,51.146,-388.469,0,0
384868,49.8236,-387.28,0,0
386169,48.1461,-385.418,0,0
387471,46.5781,-382.889,0,0
388773,45.3901,-379.793,0,0
390074,44.7964,-376.569,0,0
391376,44.5427,-373.585,0,0
392677,44.3972,-370.763,0,0
393979,44.1692,-367.928,0,0
395280.7,44.1367,-364.933,0,0
396582.325,44.3159,-361.947,0,0
397883.95,44.6701,-359.213,0,0
399185.575,45.0713,-356.577,0,0
400006.6,45.2527,-354.967,0,0