Folder: ML_Dmg_Mehdi_Dataset/Accelerated corrosion test data/2025-10-13_06-00-03

Note: README.md
# ML_Dmg_Mehdi_Dataset

File: sample_1.csv
Frequency (Hz),Impedance (ohms),Phase (Radians),Temperature (C),Humidity (%)
10000.0,243.564,-12204.4,0,0
11301.625,217.44,-10810.2,0,0
12603.25,197.383,-9710.64,0,0
13904.875,185.474,-8785.59,0,0
15206.5,188.99,-8055.15,0,0
16508.125,157.676,-7429.55,0,0
17809.75,148.626,-6894.09,0,0
19111.375,136.887,-6424.59,0,0
20413.0,160.811,-5982.56,0,0
21714.625,137.808,-5665.48,0,0
23016.25,124.072,-5362.98,0,0
24317.875,113.248,-5070.47,0,0
25619.5,105.971,-4806.57,0,0
26921.1,116.742,-4557.85,0,0
28222.7,112.582,-4353.55,0,0
29524.4,108.596,-4187.85,0,0
30826,102.501,-4000.55,0,0
32127.6,99.2521,-3842.25,0,0
33429.2,89.2091,-3698.84,0,0
34730.9,82.9746,-3557.39,0,0
36032.5,78.9997,-3426,0,0
37334.1,76.1565,-3303.7,0,0
38635.7,73.8148,-3190.03,0,0
39937.4,72.0443,-3083.01,0,0
41239,73.2032,-2984.83,0,0
42540.6,71.9407,-2892.58,0,0
43842.225,68.8247,-2804.99,0,0
45143.85,69.3535,-2723.71,0,0
46445.475,66.0879,-2646.98,0,0
47747.1,64.7324,-2573.44,0,0
49048.725,62.4582,-2503.53,0,0
50350.35,60.5637,-2437,0,0
51651.975,59.4303,-2373.29,0,0
52953.6,58.3542,-2312.48,0,0
54255.225,57.3221,-2255.49,0,0
55556.85,56.515,-2199.95,0,0
56858.475,55.5548,-2146.89,0,0
58160.1,55.1675,-2096.34,0,0
59461.7,55.0341,-2048.34,0,0
60763.3,55.1738,-2002.35,0,0
62065,53.7803,-1958.37,0,0
63366.6,53.0417,-1914.9,0,0
64668.2,53.5865,-1872.67,0,0
65969.8,55.7774,-1834.97,0,0
67271.5,54.4596,-1797.87,0,0
68573.1,53.5183,-1762.78,0,0
69874.7,52.8549,-1728.66,0,0
71176.3,50.9749,-1694.24,0,0
72478,49.1298,-1660.54,0,0
73779.6,48.6227,-1626.95,0,0
75081.2,49.1332,-1594.9,0,0
76382.825,50.0105,-1563.87,0,0
77684.45,50.708,-1534.38,0,0
78986.075,52.4516,-1506.73,0,0
80287.7,51.5898,-1480.42,0,0
81589.325,51.1565,-1452.6,0,0
82890.95,51.6149,-1425.75,0,0
84192.575,53.1488,-1399.43,0,0
85494.2,55.3563,-1375.02,0,0
86795.825,56.1435,-1351.57,0,0
88097.45,56.6898,-1328.11,0,0
89399.075,58.4425,-1303.66,0,0
90700.7,61.8555,-1280.41,0,0
92002.3,67.8171,-1258.94,0,0
93303.9,75.5322,-1241.92,0,0
94605.6,74.838,-1234.7,0,0
95907.2,67.2374,-1216.5,0,0
97208.8,65.2049,-1195.98,0,0
98510.4,64.9697,-1175.78,0,0
99812.1,64.0649,-1155.8,0,0
101114,63.9547,-1135.97,0,0
102415,63.697,-1114.08,0,0
103717,68.2568,-1093.03,0,0
105019,75.044,-1075.58,0,0
106320.175,81.579,-1059.21,0,0
107621.8,87.5806,-1046.91,0,0
108923.425,92.1314,-1035.37,0,0
110225.05,94.1404,-1027.07,0,0
111526.675,94.7225,-1014.61,0,0
112828.3,97.0465,-1004.54,0,0
114129.925,96.7395,-997.017,0,0
115431.55,93.2612,-988.102,0,0
116733.175,88.2433,-976.447,0,0
118034.8,83.7617,-961.922,0,0
119336.425,81.8978,-946.448,0,0
120638.05,82.0711,-932.005,0,0
121939.675,80.9185,-919.418,0,0
123241,79.2505,-904.84,0,0
124543,79.2121,-889.619,0,0
125845,80.1031,-874.934,0,0
127146,81.3224,-860.553,0,0
128448,83.2579,-846.285,0,0
129749,85.665,-831.83,0,0
131051,90.5273,-818.59,0,0
132353,94.6915,-807.939,0,0
133654,97.7725,-797.174,0,0
134956,100.745,-786.834,0,0
136258,103.534,-776.036,0,0
137559,108.576,-766.207,0,0
138860.775,111.352,-759.903,0,0
140162.4,110.723,-752.373,0,0
141464.025,110.239,-741.99,0,0
142765.65,110.989,-730.927,0,0
144067.275,112.374,-719.854,0,0
145368.9,114.268,-708.241,0,0
146670.525,117.779,-697.664,0,0
147972.15,120.341,-689.299,0,0
149273.775,122.553,-678.543,0,0
150575.4,124.404,-670.833,0,0
151877.025,123.236,-659.964,0,0
153178.65,122.717,-645.265,0,0
154480,126.091,-628.79,0,0
155782,133.385,-611.68,0,0
157084,144.917,-596.735,0,0
158385,158.042,-587.055,0,0
159687,167.994,-576.33,0,0
160988,185.739,-566.074,0,0
162290,204.258,-565.813,0,0
163592,215.878,-567.858,0,0
164893,226.757,-569.208,0,0
166195,240.242,-574.58,0,0
167497,247.463,-585.329,0,0
168798,247.18,-597.71,0,0
170100,238.073,-604.611,0,0
171401.375,229.745,-602.859,0,0
172703.0,225.797,-598.33,0,0
174004.625,221.84,-593.993,0,0
175306.25,220.765,-588.535,0,0
176607.875,220.765,-585.625,0,0
177909.5,218.853,-582.55,0,0
179211.125,215.174,-580.35,0,0
180512.75,209.35,-576.771,0,0
181814.375,202.42,-570.511,0,0
183116.0,194.572,-561.031,0,0
184417.625,187.855,-546.724,0,0
185719.25,186.149,-529.77,0,0
187021,187.746,-514.086,0,0
188322,190.93,-499.106,0,0
189624,194.696,-484.265,0,0
190926,199.577,-468.871,0,0
192227,205.462,-452.403,0,0
193529,214.272,-436.155,0,0
194831,224.193,-419.356,0,0
196132,237.358,-402.119,0,0
197434,253.209,-384.957,0,0
198735,272.51,-369.14,0,0
200037,293.276,-354.25,0,0
201339,318.351,-338.426,0,0
202640.35,352.321,-322.63,0,0
203941.975,393.937,-314.643,0,0
205243.6,445.959,-320.743,0,0
206545.225,491.161,-345.887,0,0
207846.85,523.95,-384.875,0,0
209148.475,539.762,-425.485,0,0
210450.1,539.599,-463.4,0,0
211751.725,529.627,-484.975,0,0
213053.35,524.656,-490.413,0,0
214354.975,535.954,-496.695,0,0
215656.6,549.333,-511.826,0,0
216958.225,557.192,-529.686,0,0
218259.85,566.871,-546.022,0,0
219561,579.082,-561.619,0,0
220863,597.333,-585.473,0,0
222165,615.01,-621.254,0,0
223466,618.569,-668.038,0,0
224768,610.048,-714.922,0,0
226070,591.01,-758.272,0,0
227371,563.589,-800.288,0,0
228673,522.549,-834.152,0,0
229974,475.985,-852.487,0,0
231276,432.804,-856.698,0,0
232578,397.484,-853.021,0,0
233879,369.427,-847.69,0,0
235180.95,345.319,-843.006,0,0
236482.575,321.459,-838.074,0,0
237784.2,299.046,-831.761,0,0
239085.825,277.718,-823.752,0,0
240387.45,257.909,-813.635,0,0
241689.075,240.829,-802.504,0,0
242990.7,225.853,-790.558,0,0
244292.325,213.55,-779.145,0,0
245593.95,201.406,-768.74,0,0
246895.575,189.41,-757.233,0,0
248197.2,179.317,-744.729,0,0
249498.825,170.961,-732.258,0,0
250800,163.623,-720.224,0,0
252102,157.309,-708.231,0,0
253404,151.528,-696.152,0,0
254705,147.045,-683.134,0,0
256007,144.859,-670.905,0,0
257309,143.342,-659.388,0,0
258610,142.412,-647.706,0,0
259912,144.066,-635.645,0,0
261213,148.257,-625.638,0,0
262515,153.328,-618.294,0,0
263817,158.465,-612.998,0,0
265118,164.08,-609.227,0,0
266420,170.786,-608.891,0,0
267721.55,174.887,-614.302,0,0
269023.175,171.421,-621.982,0,0
270324.8,161.447,-624.62,0,0
271626.425,151.051,-620.614,0,0
272928.05,143.799,-612.566,0,0
274229.675,140.467,-603.412,0,0
275531.3,139.62,-595.7,0,0
276832.925,139.807,-588.447,0,0
278134.55,141.855,-582.767,0,0
279436.175,144.124,-579.386,0,0
280737.8,145.168,-577.917,0,0
282039.425,144.167,-577.291,0,0
283341,141.389,-575.275,0,0
284643,138.379,-572.001,0,0
285944,135.848,-567.869,0,0
287246,132.632,-563.046,0,0
288548,130.518,-555.33,0,0
289849,133.071,-547.809,0,0
291151,135.795,-544.422,0,0
292452,137.26,-542.069,0,0
293754,136.226,-539.492,0,0
295056,135.169,-533.995,0,0
296357,136.894,-526.971,0,0
297659,141.195,-521.749,0,0
298960.525,145.995,-517.907,0,0
300262.15,151.47,-515.259,0,0
301563.775,157.404,-513.898,0,0
302865.4,164.139,-514.926,0,0
304167.025,169.182,-518.088,0,0
305468.65,173.242,-522.252,0,0
306770.275,176.243,-527.45,0,0
308071.9,177.145,-534.254,0,0
309373.525,175.815,-540.244,0,0
310675.15,174.04,-546.079,0,0
311976.775,170.58,-552.408,0,0
313278.4,164.372,-558.511,0,0
314580,156.255,-561.703,0,0
315882,148.737,-562.864,0,0
317183,141.481,-563.308,0,0
318485,133.902,-562.835,0,0
319787,126.419,-561.062,0,0
321088,118.977,-557.971,0,0
322390,112.591,-553.61,0,0
323691,107.331,-547.989,0,0
324993,104.25,-542.331,0,0
326295,102.352,-537.658,0,0
327596,101.076,-533.81,0,0
328898,99.9637,-531.291,0,0
330200,98.0931,-529.462,0,0
331501.125,95.6445,-527.754,0,0
332802.75,92.5003,-526.021,0,0
334104.375,89.0636,-523.857,0,0
335406.0,85.1913,-521.068,0,0
336707.625,81.6935,-517.684,0,0
338009.25,78.3569,-514.057,0,0
339310.875,75.2857,-510.048,0,0
340612.5,72.625,-505.944,0,0
341914.125,70.3781,-501.662,0,0
343215.75,68.2933,-497.668,0,0
344517.375,66.2169,-493.726,0,0
345819.0,64.0949,-489.595,0,0
347121,62.148,-485.116,0,0
348422,60.5567,-480.402,0,0
349724,59.5158,-475.769,0,0
351025,58.7611,-471.255,0,0
352327,58.4147,-467.021,0,0
353629,57.9271,-463.032,0,0
354930,57.4316,-458.999,0,0
356232,57.1649,-454.972,0,0
357534,57.0971,-451.051,0,0
358835,57.0822,-447.114,0,0
360137,57.2009,-443.342,0,0
361438,57.5403,-439.752,0,0
362740.1,57.7487,-436.171,0,0
364041.725,58.1135,-432.564,0,0
365343.35,58.6708,-429.043,0,0
366644.975,59.1386,-425.693,0,0
367946.6,59.4044,-422.135,0,0
369248.225,60.0227,-417.816,0,0
370549.85,61.783,-413.27,0,0
371851.475,64.6502,-409.314,0,0
373153.1,68.2173,-406.642,0,0
374454.725,71.6567,-405.27,0,0
375756.35,74.214,-404.778,0,0
377057.975,76.137,-404.201,0,0
378359.6,78.1781,-403.838,0,0
379661,79.7712,-403.924,0,0
380963,81.4301,-403.902,0,0
382264,83.3019,-405.207,0,0
383566,83.478,-407.521,0,0
384868,82.246,-409.494,0,0
386169,79.7997,-410.818,0,0
387471,76.5508,-410.667,0,0
388773,73.8257,-409.213,0,0
390074,71.8348,-407.216,0,0
391376,70.4751,-405.516,0,0
392677,68.9967,-404.248,0,0
393979,66.7531,-402.998,0,0
395280.7,64.1615,-400.743,0,0
396582.325,61.9062,-397.674,0,0
397883.95,60.2628,-394.255,0,0
399185.575,59.2105,-390.727,0,0
400006.6,58.6845,-388.548,0,0

File: sample_2.csv
Frequency (Hz),Impedance (ohms),Phase (Radians),Temperature (C),Humidity (%)
10000.0,230.323,-11421.8,0,0
11301.625,205.032,-10116.2,0,0
12603.25,184.673,-9082.07,0,0
13904.875,184.405,-8246.15,0,0
15206.5,161.055,-7547.24,0,0
16508.125,144.581,-6952.85,0,0
17809.75,134.705,-6445.5,0,0
19111.375,130.472,-6007.21,0,0
20413.0,119.402,-5623.66,0,0
21714.625,126.21,-5295.21,0,0
23016.25,113.262,-4998.91,0,0
24317.875,103.628,-4732.96,0,0
25619.5,98.146,-4489.75,0,0
26921.1,96.0263,-4271.22,0,0
28222.7,91.2035,-4072.63,0,0
29524.4,95.0433,-3889.23,0,0
30826,89.018,-3734.61,0,0
32127.6,83.0966,-3580.17,0,0
33429.2,81.11,-3441.93,0,0
34730.9,76.8758,-3312.01,0,0
36032.5,73.944,-3190.62,0,0
37334.1,72.0174,-3077.2,0,0
38635.7,69.9314,-2972.18,0,0
39937.4,67.8056,-2873.3,0,0
41239,66.6748,-2780.44,0,0
42540.6,65.3682,-2694.03,0,0
43842.225,64.0808,-2612.08,0,0
45143.85,62.7644,-2534.51,0,0
46445.475,61.9666,-2462.01,0,0
47747.1,61.4543,-2392.35,0,0
49048.725,61.138,-2329.07,0,0
50350.35,58.6618,-2266.78,0,0
51651.975,57.3753,-2207.87,0,0
52953.6,55.8189,-2150.48,0,0
54255.225,54.9538,-2095.87,0,0
55556.85,54.7461,-2043.79,0,0
56858.475,54.7124,-1994.05,0,0
58160.1,54.6479,-1946.87,0,0
59461.7,55.2631,-1900.97,0,0
60763.3,56.6634,-1858.39,0,0
62065,59.4764,-1820.33,0,0
63366.6,56.552,-1783.22,0,0
64668.2,53.6496,-1745.66,0,0
65969.8,51.3152,-1706.43,0,0
67271.5,51.9343,-1668.65,0,0
68573.1,54.1678,-1634.8,0,0
69874.7,56.8203,-1604.65,0,0
71176.3,53.6063,-1576.57,0,0
72478,48.4899,-1546.03,0,0
73779.6,45.7312,-1513.1,0,0
75081.2,45.8234,-1480.9,0,0
76382.825,47.4443,-1450.64,0,0
77684.45,50.0373,-1422.25,0,0
78986.075,53.3564,-1397.87,0,0
80287.7,52.502,-1376.55,0,0
81589.325,49.7807,-1351.6,0,0
82890.95,48.5178,-1325.75,0,0
84192.575,49.3064,-1301.13,0,0
85494.2,49.9458,-1277.39,0,0
86795.825,50.8858,-1255.49,0,0
88097.45,51.5016,-1234.12,0,0
89399.075,51.5654,-1212.81,0,0
90700.7,51.7229,-1192.24,0,0
92002.3,53.0609,-1171.31,0,0
93303.9,55.5439,-1152.54,0,0
94605.6,55.8453,-1136.05,0,0
95907.2,54.9757,-1116.07,0,0
97208.8,58.3493,-1099.45,0,0
98510.4,58.0259,-1085.31,0,0
99812.1,53.8789,-1070.59,0,0
101114,50.8433,-1053.86,0,0
102415,47.4373,-1033.6,0,0
103717,46.2047,-1012.34,0,0
105019,49.4501,-991.941,0,0
106320.175,54.4765,-975.105,0,0
107621.8,57.9706,-963.051,0,0
108923.425,56.5256,-951.044,0,0
110225.05,53.1155,-935.811,0,0
111526.675,51.6349,-917.959,0,0
112828.3,52.0932,-900.628,0,0
114129.925,53.5026,-883.433,0,0
115431.55,56.1631,-866.893,0,0
116733.175,59.3299,-851.211,0,0
118034.8,63.2406,-837.019,0,0
119336.425,67.0304,-824.054,0,0
120638.05,69.9145,-813.591,0,0
121939.675,69.6858,-802.513,0,0
123241,69.2144,-789.51,0,0
124543,68.9184,-776.008,0,0
125845,69.119,-761.348,0,0
127146,70.5278,-746.079,0,0
128448,73.8255,-731.558,0,0
129749,77.2153,-718.605,0,0
131051,80.3587,-706.353,0,0
132353,81.8936,-695.029,0,0
133654,82.7851,-681.949,0,0
134956,83.7071,-668.413,0,0
136258,85.5444,-653.627,0,0
137559,88.0008,-638.542,0,0
138860.775,90.8974,-623.569,0,0
140162.4,93.9676,-607.354,0,0
141464.025,99.1344,-588.734,0,0
142765.65,108.398,-571.584,0,0
144067.275,117.722,-556.431,0,0
145368.9,128.282,-540.885,0,0
146670.525,140.098,-526.397,0,0
147972.15,154.564,-511.368,0,0
149273.775,174.227,-496.944,0,0
150575.4,201.004,-490.569,0,0
151877.025,225.129,-498.726,0,0
153178.65,237.171,-511.607,0,0
154480,238.745,-523.753,0,0
155782,236.431,-528.578,0,0
157084,232.092,-530.621,0,0
158385,228.282,-526.061,0,0
159687,226.778,-521.299,0,0
160988,226.424,-514.68,0,0
162290,233.777,-509.233,0,0
163592,230.441,-516.8,0,0
164893,218.501,-514.876,0,0
166195,204.084,-502.682,0,0
167497,195.942,-483.178,0,0
168798,194.275,-461.154,0,0
170100,195.886,-440.399,0,0
171401.375,200.003,-418.067,0,0
172703.0,207.752,-395.096,0,0
174004.625,219.478,-371.677,0,0
175306.25,237.117,-347.99,0,0
176607.875,260.876,-329.886,0,0
177909.5,287.26,-318.288,0,0
179211.125,310.01,-316.986,0,0
180512.75,320.371,-315.009,0,0
181814.375,327.278,-300.411,0,0
183116.0,343.411,-282.095,0,0
184417.625,364.639,-258.595,0,0
185719.25,399.831,-238.484,0,0
187021,435.737,-227.452,0,0
188322,477.829,-218.844,0,0
189624,516.323,-216.117,0,0
190926,560.93,-209.365,0,0
192227,619.407,-206.699,0,0
193529,692.928,-220.755,0,0
194831,763.857,-264.332,0,0
196132,817.034,-325.064,0,0
197434,859.608,-387.557,0,0
198735,895.473,-467.606,0,0
200037,905.632,-555.128,0,0
201339,897.081,-644.792,0,0
202640.35,864.998,-726.035,0,0
203941.975,812.833,-789.397,0,0
205243.6,761.357,-837.938,0,0
206545.225,699.703,-869.531,0,0
207846.85,645.303,-881.542,0,0
209148.475,605.57,-887.844,0,0
210450.1,564.489,-901.118,0,0
211751.725,516.55,-905.004,0,0
213053.35,474.893,-895.661,0,0
214354.975,440.702,-881.168,0,0
215656.6,413.945,-865.6,0,0
216958.225,392.854,-848.501,0,0
218259.85,377.662,-831.8,0,0
219561,366.987,-817.05,0,0
220863,359.549,-805.065,0,0
222165,354.796,-794.25,0,0
223466,352.918,-789.043,0,0
224768,347.845,-785.796,0,0
226070,343.706,-781.548,0,0
227371,342.477,-779.776,0,0
228673,341.932,-783.419,0,0
229974,336.03,-792.099,0,0
231276,323.839,-799.482,0,0
232578,309.383,-803.769,0,0
233879,293.521,-805.481,0,0
235180.95,277.473,-804.852,0,0
236482.575,261.375,-802.573,0,0
237784.2,244.828,-798.054,0,0
239085.825,229.301,-791.161,0,0
240387.45,215.255,-782.263,0,0
241689.075,203.517,-772.612,0,0
242990.7,193.866,-762.578,0,0
244292.325,185.84,-753.949,0,0
245593.95,178.135,-747.189,0,0
246895.575,167.248,-742.406,0,0
248197.2,153.463,-732.987,0,0
249498.825,141.544,-720.256,0,0
250800,131.381,-705.102,0,0
252102,124.848,-687.908,0,0
253404,121.69,-671.595,0,0
254705,120.217,-655.847,0,0
256007,120.647,-640.136,0,0
257309,124.025,-625.369,0,0
258610,128.991,-612.43,0,0
259912,135.784,-600.735,0,0
261213,144.235,-591.749,0,0
262515,153.154,-585.34,0,0
263817,161.986,-581.64,0,0
265118,170.037,-580.367,0,0
266420,176.08,-581.11,0,0
267721.55,180.507,-582.265,0,0
269023.175,183.145,-584.226,0,0
270324.8,183.498,-584.433,0,0
271626.425,184.739,-582.201,0,0
272928.05,188.89,-578.849,0,0
274229.675,197.547,-577.687,0,0
275531.3,209.297,-583.585,0,0
276832.925,215.461,-599.309,0,0
278134.55,210.554,-615.503,0,0
279436.175,199.794,-626.632,0,0
280737.8,186.656,-632.543,0,0
282039.425,174.095,-635.585,0,0
283341,159.277,-634.819,0,0
284643,148.193,-630.037,0,0
285944,135.619,-626.038,0,0
287246,122.261,-615.593,0,0
288548,114.064,-599.156,0,0
289849,115.137,-580.413,0,0
291151,125.509,-566.623,0,0
292452,140.564,-564.027,0,0
293754,148.197,-572.122,0,0
295056,145.737,-577.239,0,0
296357,147.816,-576.807,0,0
297659,149.687,-586.689,0,0
298960.525,140.8,-594.255,0,0
300262.15,130.853,-595.554,0,0
301563.775,122.247,-592.968,0,0
302865.4,117.693,-589.874,0,0
304167.025,113.197,-589.463,0,0
305468.65,106.165,-589.462,0,0
306770.275,97.7201,-587.039,0,0
308071.9,89.8446,-582.268,0,0
309373.525,83.5513,-576.503,0,0
310675.15,78.0431,-570.685,0,0
311976.775,73.2116,-564.167,0,0
313278.4,69.4457,-557.505,0,0
314580,66.3743,-551.191,0,0
315882,63.5554,-544.791,0,0
317183,61.2684,-538.242,0,0
318485,59.813,-531.903,0,0
319787,58.6099,-526,0,0
321088,57.7043,-520.208,0,0
322390,56.8276,-514.439,0,0
323691,56.3083,-508.522,0,0
324993,56.4131,-501.945,0,0
326295,58.5403,-495.504,0,0
327596,61.8323,-491.457,0,0
328898,64.1359,-489.124,0,0
330200,66.0434,-487.127,0,0
331501.125,67.3016,-486.506,0,0
332802.75,66.8161,-486.568,0,0
334104.375,64.5038,-485.644,0,0
335406.0,61.884,-483.227,0,0
336707.625,59.7656,-479.962,0,0
338009.25,58.0613,-476.301,0,0
339310.875,56.6659,-472.442,0,0
340612.5,55.5027,-468.408,0,0
341914.125,54.7382,-464.054,0,0
343215.75,54.2359,-459.685,0,0
344517.375,54.3082,-455.198,0,0
345819.0,54.9714,-450.82,0,0
347121,56.0654,-446.827,0,0
348422,57.402,-443.159,0,0
349724,58.989,-439.929,0,0
351025,60.6749,-437.326,0,0
352327,62.1021,-435.152,0,0
353629,63.2287,-432.951,0,0
354930,64.477,-430.806,0,0
356232,65.7968,-428.808,0,0
357534,67.3528,-426.981,0,0
358835,69.2063,-425.698,0,0
360137,70.8589,-425.382,0,0
361438,71.7379,-425.576,0,0
362740.1,71.7075,-425.723,0,0
364041.725,71.1505,-425.511,0,0
365343.35,70.4306,-425.08,0,0
366644.975,69.4371,-424.142,0,0
367946.6,68.7677,-422.735,0,0
369248.225,68.8692,-421.564,0,0
370549.85,68.5196,-421.487,0,0
371851.475,67.2256,-421.046,0,0
373153.1,65.9946,-419.965,0,0
374454.725,65.0666,-419.18,0,0
375756.35,63.3693,-418.572,0,0
377057.975,61.5302,-417.263,0,0
378359.6,59.9377,-416.02,0,0
379661,57.2638,-414.849,0,0
380963,54.6545,-411.437,0,0
382264,54.5777,-408.614,0,0
383566,53.5572,-407.541,0,0
384868,51.3293,-405.833,0,0
386169,49.0237,-403.07,0,0
387471,47.3137,-399.734,0,0
388773,46.1633,-396.257,0,0
390074,45.6692,-392.768,0,0
391376,45.6632,-389.964,0,0
392677,45.15,-387.951,0,0
393979,43.6265,-385.644,0,0
395280.7,41.9012,-382.249,0,0
396582.325,41.0082,-378.052,0,0
397883.95,40.9387,-373.882,0,0
399185.575,41.4259,-370.043,0,0
400006.6,41.889,-367.807,0,0