Folder: ML_Dmg_Mehdi_Dataset/Accelerated corrosion test data/2025-10-11_18-00-03

Note: README.md
# ML_Dmg_Mehdi_Dataset

File: sample_1.csv
Frequency (Hz),Impedance (ohms),Phase (Radians),Temperature (C),Humidity (%)
10000.0,237.956,-12183.5,0,0
11301.625,212.186,-10790.3,0,0
12603.25,192.552,-9692.28,0,0
13904.875,179.843,-8771.35,0,0
15206.5,181.067,-8039.13,0,0
16508.125,153.799,-7415.53,0,0
17809.75,144.224,-6880.98,0,0
19111.375,134.362,-6412.82,0,0
20413.0,153.626,-5971.3,0,0
21714.625,136.837,-5655.17,0,0
23016.25,121.863,-5351.95,0,0
24317.875,111.808,-5060.02,0,0
25619.5,104.392,-4796.54,0,0
26921.1,113.056,-4547.91,0,0
28222.7,109.567,-4344.79,0,0
29524.4,106.622,-4178.53,0,0
30826,99.9862,-3992.05,0,0
32127.6,97.1439,-3833.66,0,0
33429.2,88.1667,-3690.95,0,0
34730.9,81.3416,-3549.31,0,0
36032.5,77.3082,-3418.14,0,0
37334.1,74.8279,-3296.14,0,0
38635.7,72.4187,-3182.86,0,0
39937.4,70.7249,-3076.38,0,0
41239,71.6264,-2977.72,0,0
42540.6,70.0759,-2885.57,0,0
43842.225,67.4639,-2799.03,0,0
45143.85,67.9864,-2717.55,0,0
46445.475,65.156,-2641.31,0,0
47747.1,63.3621,-2567.59,0,0
49048.725,61.0675,-2497.69,0,0
50350.35,59.308,-2431.18,0,0
51651.975,58.364,-2367.75,0,0
52953.6,57.3873,-2306.97,0,0
54255.225,56.4837,-2250.02,0,0
55556.85,55.6823,-2194.66,0,0
56858.475,54.7121,-2141.8,0,0
58160.1,54.4021,-2091.29,0,0
59461.7,54.1954,-2043.41,0,0
60763.3,54.3182,-1997.53,0,0
62065,53.0484,-1953.65,0,0
63366.6,52.2831,-1910.18,0,0
64668.2,52.789,-1868.18,0,0
65969.8,54.9116,-1830.34,0,0
67271.5,53.5893,-1794.09,0,0
68573.1,53.1502,-1758.41,0,0
69874.7,52.0796,-1724.62,0,0
71176.3,50.2763,-1690.03,0,0
72478,48.4232,-1656.54,0,0
73779.6,48.0023,-1623.02,0,0
75081.2,48.4396,-1590.87,0,0
76382.825,49.1279,-1559.89,0,0
77684.45,50.143,-1530.65,0,0
78986.075,51.7597,-1503.06,0,0
80287.7,51.1178,-1476.61,0,0
81589.325,50.5373,-1448.85,0,0
82890.95,51.1693,-1421.99,0,0
84192.575,52.7333,-1396,0,0
85494.2,54.9899,-1371.25,0,0
86795.825,56.0314,-1348.32,0,0
88097.45,56.2646,-1325.11,0,0
89399.075,57.9765,-1300.47,0,0
90700.7,61.5246,-1277.35,0,0
92002.3,67.8508,-1256.43,0,0
93303.9,75.0425,-1239.69,0,0
94605.6,73.3761,-1232.37,0,0
95907.2,66.7055,-1213.71,0,0
97208.8,64.5205,-1193.08,0,0
98510.4,64.1058,-1172.37,0,0
99812.1,63.123,-1152.79,0,0
101114,63.3788,-1132.77,0,0
102415,63.1968,-1111.39,0,0
103717,68.2463,-1090.03,0,0
105019,75.1249,-1072.64,0,0
106320.175,81.5685,-1056.51,0,0
107621.8,88.0409,-1044.22,0,0
108923.425,92.5239,-1033.82,0,0
110225.05,93.9062,-1025.88,0,0
111526.675,93.9979,-1013.38,0,0
112828.3,95.6302,-1003.77,0,0
114129.925,94.3803,-995.813,0,0
115431.55,90.6083,-985.821,0,0
116733.175,85.7474,-973.149,0,0
118034.8,81.9979,-958.425,0,0
119336.425,80.6739,-942.801,0,0
120638.05,81.3653,-928.649,0,0
121939.675,80.3699,-916.075,0,0
123241,79.0674,-901.894,0,0
124543,78.8539,-886.784,0,0
125845,79.6902,-872.146,0,0
127146,81.1095,-857.958,0,0
128448,83.1266,-843.642,0,0
129749,85.6373,-829.641,0,0
131051,90.6754,-816.568,0,0
132353,94.745,-806.396,0,0
133654,97.3575,-796.014,0,0
134956,99.6841,-785.622,0,0
136258,102.399,-774.48,0,0
137559,107.191,-764.677,0,0
138860.775,109.21,-758.339,0,0
140162.4,109.239,-749.622,0,0
141464.025,109.136,-739.404,0,0
142765.65,110.004,-728.573,0,0
144067.275,111.142,-717.272,0,0
145368.9,113.847,-706.137,0,0
146670.525,116.31,-696.094,0,0
147972.15,118.603,-686.878,0,0
149273.775,120.942,-676.096,0,0
150575.4,122.535,-668.056,0,0
151877.025,121.41,-656.151,0,0
153178.65,121.661,-641.405,0,0
154480,125.85,-624.705,0,0
155782,133.644,-608.207,0,0
157084,145.564,-593.715,0,0
158385,158.479,-584.287,0,0
159687,168.783,-573.829,0,0
160988,186.91,-563.778,0,0
162290,205.746,-564.458,0,0
163592,217.229,-566.79,0,0
164893,228.702,-569.639,0,0
166195,240.685,-576.117,0,0
167497,245.605,-587.908,0,0
168798,243.263,-599.2,0,0
170100,233.583,-604.496,0,0
171401.375,225.781,-601.424,0,0
172703.0,220.959,-596.869,0,0
174004.625,217.631,-591.105,0,0
175306.25,216.613,-585.167,0,0
176607.875,217.253,-581.21,0,0
177909.5,216.221,-578.388,0,0
179211.125,211.979,-576.696,0,0
180512.75,205.922,-572.59,0,0
181814.375,198.657,-564.327,0,0
183116.0,192.678,-554.172,0,0
184417.625,187.007,-540.222,0,0
185719.25,185.754,-523.298,0,0
187021,187.871,-507.678,0,0
188322,191.645,-493.122,0,0
189624,195.285,-478.85,0,0
190926,200.294,-463.352,0,0
192227,206.208,-446.858,0,0
193529,215.258,-430.034,0,0
194831,225.552,-413.312,0,0
196132,238.756,-395.711,0,0
197434,255.416,-377.533,0,0
198735,276.636,-361.098,0,0
200037,298.746,-347.479,0,0
201339,325.235,-331.123,0,0
202640.35,361.749,-316.856,0,0
203941.975,405.09,-312.526,0,0
205243.6,456.984,-322.136,0,0
206545.225,499.468,-352.427,0,0
207846.85,526.977,-392.008,0,0
209148.475,538.553,-430.936,0,0
210450.1,536.166,-465.057,0,0
211751.725,526.761,-482.238,0,0
213053.35,525.6,-485.909,0,0
214354.975,538.018,-494.469,0,0
215656.6,549.826,-508.132,0,0
216958.225,558.638,-523.914,0,0
218259.85,573.638,-537.106,0,0
219561,590.129,-556.921,0,0
220863,609.265,-584.095,0,0
222165,627.366,-623.24,0,0
223466,631.548,-674.711,0,0
224768,619.923,-724.518,0,0
226070,598.246,-771.353,0,0
227371,565.374,-814.44,0,0
228673,520.217,-846.264,0,0
229974,472.028,-861.436,0,0
231276,428.541,-864.041,0,0
232578,393.133,-859.154,0,0
233879,365.36,-853.574,0,0
235180.95,339.851,-848.753,0,0
236482.575,315.071,-842.822,0,0
237784.2,291.647,-834.514,0,0
239085.825,271.049,-825.06,0,0
240387.45,251.832,-813.904,0,0
241689.075,235.168,-802.418,0,0
242990.7,220.848,-789.935,0,0
244292.325,208.556,-778.339,0,0
245593.95,196.707,-767.233,0,0
246895.575,185.375,-755.558,0,0
248197.2,175.617,-742.81,0,0
249498.825,167.487,-730.253,0,0
250800,160.621,-718.043,0,0
252102,154.374,-705.932,0,0
253404,148.974,-693.408,0,0
254705,145.058,-680.554,0,0
256007,143.205,-668.321,0,0
257309,141.894,-656.785,0,0
258610,141.549,-645.245,0,0
259912,143.535,-633.486,0,0
261213,147.809,-623.807,0,0
262515,153.126,-616.643,0,0
263817,158.691,-611.633,0,0
265118,164.555,-608.739,0,0
266420,170.98,-609.988,0,0
267721.55,172.733,-616.307,0,0
269023.175,167.237,-622.251,0,0
270324.8,157.136,-622.731,0,0
271626.425,147.803,-617.239,0,0
272928.05,141.832,-608.571,0,0
274229.675,139.926,-599.345,0,0
275531.3,140.14,-592.1,0,0
276832.925,141.099,-585.821,0,0
278134.55,143.57,-581.245,0,0
279436.175,145.249,-578.849,0,0
280737.8,145.909,-577.749,0,0
282039.425,144.78,-577.402,0,0
283341,141.532,-576.007,0,0
284643,137.611,-572.836,0,0
285944,134.476,-568.424,0,0
287246,130.897,-563.082,0,0
288548,128.876,-555.218,0,0
289849,130.881,-547.626,0,0
291151,133.733,-543.454,0,0
292452,135.193,-540.77,0,0
293754,134.297,-537.999,0,0
295056,133.083,-531.68,0,0
296357,136.048,-524.035,0,0
297659,141.248,-519.331,0,0
298960.525,146.33,-515.967,0,0
300262.15,151.793,-513.986,0,0
301563.775,157.59,-512.621,0,0
302865.4,164.593,-513.502,0,0
304167.025,170.149,-517.228,0,0
305468.65,174.173,-521.869,0,0
306770.275,177.3,-527.523,0,0
308071.9,178.112,-534.881,0,0
309373.525,176.4,-541.778,0,0
310675.15,173.711,-547.553,0,0
311976.775,169.645,-554.371,0,0
313278.4,162.624,-560.112,0,0
314580,154.125,-562.969,0,0
315882,146.389,-563.902,0,0
317183,138.474,-564.007,0,0
318485,130.511,-562.832,0,0
319787,122.926,-560.431,0,0
321088,115.903,-556.472,0,0
322390,110.211,-551.798,0,0
323691,105.499,-546.362,0,0
324993,102.574,-540.835,0,0
326295,100.813,-536.397,0,0
327596,99.3188,-532.641,0,0
328898,98.0982,-529.813,0,0
330200,96.6747,-527.918,0,0
331501.125,94.2486,-526.456,0,0
332802.75,91.0201,-524.699,0,0
334104.375,87.5127,-522.442,0,0
335406.0,83.7381,-519.705,0,0
336707.625,79.9978,-516.304,0,0
338009.25,76.8306,-512.515,0,0
339310.875,73.8016,-508.521,0,0
340612.5,71.2397,-504.194,0,0
341914.125,68.9736,-500.135,0,0
343215.75,66.8418,-496.046,0,0
344517.375,64.7359,-491.895,0,0
345819.0,62.6744,-487.621,0,0
347121,60.8944,-483.047,0,0
348422,59.5071,-478.335,0,0
349724,58.602,-473.702,0,0
351025,57.8874,-469.154,0,0
352327,57.5467,-464.852,0,0
353629,57.254,-460.781,0,0
354930,56.9325,-456.777,0,0
356232,56.8335,-452.728,0,0
357534,56.9979,-448.864,0,0
358835,57.1512,-445.226,0,0
360137,57.416,-441.619,0,0
361438,57.7603,-438.083,0,0
362740.1,57.9937,-434.73,0,0
364041.725,58.3978,-431.218,0,0
365343.35,58.9608,-427.883,0,0
366644.975,59.3106,-424.61,0,0
367946.6,59.5765,-421.088,0,0
369248.225,60.087,-416.77,0,0
370549.85,61.9987,-412.112,0,0
371851.475,65.1503,-408.353,0,0
373153.1,68.7867,-406.001,0,0
374454.725,72.1642,-404.718,0,0
375756.35,74.8258,-404.447,0,0
377057.975,76.7952,-404.387,0,0
378359.6,78.4651,-404.405,0,0
379661,79.6319,-404.628,0,0
380963,81.0883,-404.737,0,0
382264,82.5804,-406.346,0,0
383566,82.0947,-408.712,0,0
384868,80.127,-410.286,0,0
386169,77.4308,-410.851,0,0
387471,74.2075,-410.321,0,0
388773,71.4791,-408.442,0,0
390074,69.7898,-406.224,0,0
391376,68.483,-404.436,0,0
392677,66.9538,-402.873,0,0
393979,64.9565,-401.263,0,0
395280.7,62.7302,-398.961,0,0
396582.325,60.7485,-395.948,0,0
397883.95,59.342,-392.548,0,0
399185.575,58.2645,-389.243,0,0
400006.6,57.7355,-387.046,0,0

File: sample_2.csv
Frequency (Hz),Impedance (ohms),Phase (Radians),Temperature (C),Humidity (%)
10000.0,231.57,-11397.3,0,0
11301.625,205.791,-10094.5,0,0
12603.25,185.024,-9062.79,0,0
13904.875,186.291,-8218.35,0,0
15206.5,165.661,-7529.62,0,0
16508.125,144.164,-6937.86,0,0
17809.75,133.015,-6432.11,0,0
19111.375,128.922,-5993.16,0,0
20413.0,118.864,-5611.5,0,0
21714.625,127.585,-5282.86,0,0
23016.25,112.676,-4987.56,0,0
24317.875,103.557,-4722.56,0,0
25619.5,97.7825,-4479.6,0,0
26921.1,95.0674,-4262.32,0,0
28222.7,90.2408,-4063.76,0,0
29524.4,93.1818,-3880.51,0,0
30826,87.9647,-3726.1,0,0
32127.6,82.0653,-3572.73,0,0
33429.2,80.0192,-3434.51,0,0
34730.9,75.6142,-3304.16,0,0
36032.5,72.9708,-3183.52,0,0
37334.1,71.1714,-3070.03,0,0
38635.7,68.8389,-2965.25,0,0
39937.4,67.1499,-2866.66,0,0
41239,65.7281,-2773.9,0,0
42540.6,64.666,-2687.81,0,0
43842.225,63.0251,-2605.89,0,0
45143.85,61.9979,-2528.21,0,0
46445.475,61.338,-2456.38,0,0
47747.1,60.5687,-2387.21,0,0
49048.725,60.6956,-2323.15,0,0
50350.35,58.0309,-2261.45,0,0
51651.975,56.7346,-2202.38,0,0
52953.6,55.2074,-2145.25,0,0
54255.225,54.3882,-2090.78,0,0
55556.85,53.9646,-2038.92,0,0
56858.475,53.8473,-1989.24,0,0
58160.1,54.082,-1942.02,0,0
59461.7,54.6694,-1896.23,0,0
60763.3,56.1909,-1853.91,0,0
62065,58.9621,-1815.5,0,0
63366.6,55.673,-1779.15,0,0
64668.2,52.9872,-1740.76,0,0
65969.8,50.686,-1701.72,0,0
67271.5,51.3841,-1664.59,0,0
68573.1,53.5308,-1630.8,0,0
69874.7,55.9824,-1600.48,0,0
71176.3,52.5513,-1572.42,0,0
72478,47.9469,-1542.03,0,0
73779.6,45.3612,-1509.28,0,0
75081.2,45.2804,-1476.99,0,0
76382.825,46.9462,-1446.65,0,0
77684.45,49.7006,-1418.45,0,0
78986.075,53.0675,-1394.17,0,0
80287.7,51.817,-1372.83,0,0
81589.325,49.2919,-1347.78,0,0
82890.95,48.2071,-1322.1,0,0
84192.575,48.93,-1297.44,0,0
85494.2,49.6065,-1273.96,0,0
86795.825,50.7754,-1252.1,0,0
88097.45,51.3258,-1230.98,0,0
89399.075,51.3912,-1209.5,0,0
90700.7,51.6759,-1189.4,0,0
92002.3,52.9242,-1168.28,0,0
93303.9,55.5015,-1149.39,0,0
94605.6,55.4525,-1132.73,0,0
95907.2,54.5814,-1113.49,0,0
97208.8,58.0115,-1096.33,0,0
98510.4,57.8117,-1082.73,0,0
99812.1,53.5304,-1068.48,0,0
101114,50.5551,-1050.61,0,0
102415,47.0622,-1030.54,0,0
103717,46.2013,-1009.61,0,0
105019,49.4489,-989.192,0,0
106320.175,54.4008,-972.327,0,0
107621.8,57.5302,-960.322,0,0
108923.425,56.1311,-948.092,0,0
110225.05,53.0027,-932.866,0,0
111526.675,51.8144,-915.211,0,0
112828.3,52.3839,-897.698,0,0
114129.925,54.1941,-880.606,0,0
115431.55,57.0232,-864.277,0,0
116733.175,60.5843,-849.126,0,0
118034.8,64.5534,-835.412,0,0
119336.425,68.0438,-823.792,0,0
120638.05,69.8529,-813.379,0,0
121939.675,68.9851,-802.027,0,0
123241,67.9732,-788.957,0,0
124543,67.3688,-774.868,0,0
125845,67.7468,-759.851,0,0
127146,69.4548,-744.738,0,0
128448,72.2893,-730.615,0,0
129749,74.9329,-717.63,0,0
131051,77.1547,-704.618,0,0
132353,78.7163,-692.117,0,0
133654,79.9205,-678.133,0,0
134956,81.5154,-663.834,0,0
136258,84.0788,-648.637,0,0
137559,87.3266,-633.54,0,0
138860.775,90.9184,-618.514,0,0
140162.4,94.5668,-602.491,0,0
141464.025,100.29,-583.885,0,0
142765.65,110.044,-566.187,0,0
144067.275,121.411,-551.186,0,0
145368.9,133.156,-536.831,0,0
146670.525,146.57,-523.202,0,0
147972.15,162.888,-510.57,0,0
149273.775,182.879,-499.638,0,0
150575.4,208.935,-497.821,0,0
151877.025,229.147,-510.31,0,0
153178.65,234.015,-524.808,0,0
154480,230.694,-534.178,0,0
155782,225.273,-535.276,0,0
157084,219.546,-532.642,0,0
158385,215.801,-524.122,0,0
159687,217.811,-516.238,0,0
160988,219.284,-510.995,0,0
162290,224.591,-506.371,0,0
163592,222.129,-510.946,0,0
164893,209.6,-507.148,0,0
166195,197.682,-493.755,0,0
167497,190.585,-473.523,0,0
168798,189.539,-450.696,0,0
170100,192.721,-429.253,0,0
171401.375,197.068,-406.948,0,0
172703.0,206.288,-382.556,0,0
174004.625,219.934,-357.45,0,0
175306.25,241.395,-333.244,0,0
176607.875,268.909,-318.549,0,0
177909.5,295.236,-308.665,0,0
179211.125,317.044,-310.271,0,0
180512.75,325.643,-308.496,0,0
181814.375,331.161,-292.138,0,0
183116.0,349.854,-269.988,0,0
184417.625,376.111,-247.003,0,0
185719.25,413.449,-227.833,0,0
187021,454.101,-219.42,0,0
188322,496.898,-212.969,0,0
189624,539.484,-214.282,0,0
190926,585.563,-212.236,0,0
192227,644.961,-215.136,0,0
193529,716.503,-236.096,0,0
194831,783.397,-286.011,0,0
196132,832.734,-351.006,0,0
197434,866.826,-420.107,0,0
198735,894.252,-499.844,0,0
200037,896.476,-583.856,0,0
201339,884.426,-671.619,0,0
202640.35,843.948,-750.048,0,0
203941.975,787.093,-808.161,0,0
205243.6,731.878,-847.485,0,0
206545.225,669.287,-870.658,0,0
207846.85,618.576,-874.726,0,0
209148.475,583.325,-878.218,0,0
210450.1,545.177,-888.777,0,0
211751.725,500.408,-888.932,0,0
213053.35,464.24,-877.194,0,0
214354.975,434.588,-863.253,0,0
215656.6,411.85,-848.293,0,0
216958.225,393.728,-832.795,0,0
218259.85,380.787,-817.643,0,0
219561,372.098,-804.342,0,0
220863,366.546,-794.01,0,0
222165,363.615,-785.207,0,0
223466,363.455,-781.832,0,0
224768,360.452,-782.419,0,0
226070,355.058,-782.534,0,0
227371,352.339,-783.214,0,0
228673,349.9,-789.399,0,0
229974,341.589,-800.128,0,0
231276,326.322,-808.6,0,0
232578,308.595,-812.656,0,0
233879,290.105,-813.061,0,0
235180.95,272.405,-810.633,0,0
236482.575,255.416,-806.558,0,0
237784.2,238.538,-800.695,0,0
239085.825,222.976,-792.383,0,0
240387.45,209.166,-782.508,0,0
241689.075,197.709,-772.274,0,0
242990.7,187.75,-761.862,0,0
244292.325,179.116,-753.089,0,0
245593.95,170.097,-744.796,0,0
246895.575,159.41,-736.939,0,0
248197.2,147.285,-725.565,0,0
249498.825,137.282,-711.69,0,0
250800,129.541,-696.298,0,0
252102,124.523,-679.581,0,0
253404,122.665,-663.715,0,0
254705,122.087,-648.5,0,0
256007,123.531,-633.069,0,0
257309,128.355,-618.994,0,0
258610,134.424,-607.274,0,0
259912,141.736,-596.95,0,0
261213,150.791,-589.037,0,0
262515,160.191,-584.472,0,0
263817,168.861,-582.655,0,0
265118,175.879,-583.756,0,0
266420,179.348,-585.72,0,0
267721.55,181.566,-586.532,0,0
269023.175,182.223,-587.06,0,0
270324.8,182.463,-584.754,0,0
271626.425,185.748,-580.68,0,0
272928.05,192.649,-578.273,0,0
274229.675,203.02,-579.573,0,0
275531.3,214.386,-589.352,0,0
276832.925,217.094,-608.083,0,0
278134.55,207.72,-623.496,0,0
279436.175,195.22,-632.147,0,0
280737.8,181.594,-636.671,0,0
282039.425,168.498,-638.012,0,0
283341,153.685,-636.087,0,0
284643,142.928,-629.675,0,0
285944,131.035,-625.053,0,0
287246,118.203,-613.361,0,0
288548,111.88,-596.437,0,0
289849,114.357,-577.786,0,0
291151,126.748,-565.825,0,0
292452,141.25,-565.801,0,0
293754,146.564,-575.464,0,0
295056,142.647,-579.1,0,0
296357,144.631,-579.149,0,0
297659,144.251,-588.55,0,0
298960.525,135.062,-593.715,0,0
300262.15,126.089,-594.202,0,0
301563.775,117.727,-591.221,0,0
302865.4,113.674,-587.396,0,0
304167.025,110.032,-587.187,0,0
305468.65,102.859,-587.468,0,0
306770.275,94.0564,-584.732,0,0
308071.9,86.2429,-579.329,0,0
309373.525,80.2964,-572.849,0,0
310675.15,75.6599,-566.594,0,0
311976.775,71.4268,-560.19,0,0
313278.4,68.1368,-553.471,0,0
314580,65.5997,-547.243,0,0
315882,63.382,-541.166,0,0
317183,61.5341,-534.87,0,0
318485,60.4753,-528.913,0,0
319787,59.6601,-523.559,0,0
321088,58.6662,-518.427,0,0
322390,57.668,-513.172,0,0
323691,56.7315,-507.563,0,0
324993,56.587,-501.059,0,0
326295,58.6538,-494.694,0,0
327596,61.9426,-490.913,0,0
328898,64.0392,-488.748,0,0
330200,65.437,-487.107,0,0
331501.125,66.1054,-486.343,0,0
332802.75,65.2662,-486.021,0,0
334104.375,62.8661,-484.55,0,0
335406.0,60.4101,-481.707,0,0
336707.625,58.5034,-478.262,0,0
338009.25,56.882,-474.394,0,0
339310.875,55.6388,-470.288,0,0
340612.5,54.8799,-465.946,0,0
341914.125,54.5986,-461.619,0,0
343215.75,54.6621,-457.366,0,0
344517.375,55.0758,-453.22,0,0
345819.0,55.9288,-449.187,0,0
347121,57.1226,-445.562,0,0
348422,58.5359,-442.352,0,0
349724,60.1011,-439.417,0,0
351025,61.7415,-437.145,0,0
352327,63.0671,-435.231,0,0
353629,64.0285,-433.385,0,0
354930,65.0531,-431.405,0,0
356232,66.2481,-429.656,0,0
357534,67.6481,-428.08,0,0
358835,69.2782,-427.135,0,0
360137,70.5168,-427.116,0,0
361438,70.8658,-427.431,0,0
362740.1,70.5,-427.614,0,0
364041.725,69.4468,-427.481,0,0
365343.35,68.2794,-426.897,0,0
366644.975,66.6838,-425.782,0,0
367946.6,65.6491,-423.935,0,0
369248.225,65.3418,-422.39,0,0
370549.85,64.9438,-421.679,0,0
371851.475,63.6594,-420.914,0,0
373153.1,62.3728,-419.644,0,0
374454.725,61.2433,-418.339,0,0
375756.35,59.7899,-417.274,0,0
377057.975,58.1521,-415.72,0,0
378359.6,56.6997,-414.398,0,0
379661,54.073,-412.97,0,0
380963,51.7729,-409.341,0,0
382264,51.7625,-406.502,0,0
383566,50.7389,-405.077,0,0
384868,48.8396,-403.022,0,0
386169,46.9501,-400.308,0,0
387471,45.4462,-396.988,0,0
388773,44.4834,-393.429,0,0
390074,44.2427,-389.999,0,0
391376,44.5599,-387.292,0,0
392677,44.0657,-385.521,0,0
393979,42.5796,-383.14,0,0
395280.7,41.1081,-379.772,0,0
396582.325,40.3703,-375.766,0,0
397883.95,40.3587,-371.844,0,0
399185.575,40.8184,-368.152,0,0
400006.6,41.2068,-366.041,0,0