Folder: ML_Dmg_Mehdi_Dataset/Accelerated corrosion test data/2025-10-19_06-00-03

Note: README.md
# ML_Dmg_Mehdi_Dataset

File: sample_1.csv
Frequency (Hz),Impedance (ohms),Phase (Radians),Temperature (C),Humidity (%)
10000.0,244.936,-12310.6,0,0
11301.625,218.052,-10903.9,0,0
12603.25,198.048,-9794.07,0,0
13904.875,186.966,-8860.76,0,0
15206.5,193.144,-8124.03,0,0
16508.125,157.696,-7494.61,0,0
17809.75,149.022,-6952.95,0,0
19111.375,137.654,-6480.24,0,0
20413.0,160.556,-6031.86,0,0
21714.625,137.011,-5713.34,0,0
23016.25,124.243,-5410.37,0,0
24317.875,114.669,-5114.91,0,0
25619.5,106.846,-4847.78,0,0
26921.1,117.209,-4595.03,0,0
28222.7,113.298,-4391.41,0,0
29524.4,110.605,-4226.16,0,0
30826,102.479,-4034.73,0,0
32127.6,99.3989,-3877.61,0,0
33429.2,89.9961,-3731.43,0,0
34730.9,83.7423,-3588.62,0,0
36032.5,79.2448,-3456.29,0,0
37334.1,76.5908,-3332.78,0,0
38635.7,74.2317,-3218.24,0,0
39937.4,72.4554,-3110.3,0,0
41239,74.0505,-3010.79,0,0
42540.6,72.566,-2918.08,0,0
43842.225,68.6841,-2829.88,0,0
45143.85,69.9164,-2747.73,0,0
46445.475,66.1997,-2669.94,0,0
47747.1,65.2339,-2596.33,0,0
49048.725,62.5739,-2525.71,0,0
50350.35,60.5154,-2458.46,0,0
51651.975,59.4982,-2394.48,0,0
52953.6,58.6189,-2332.95,0,0
54255.225,57.5232,-2275.52,0,0
55556.85,56.4013,-2219.53,0,0
56858.475,55.5762,-2165.94,0,0
58160.1,55.2595,-2114.99,0,0
59461.7,55.0178,-2066.52,0,0
60763.3,55.2087,-2020.15,0,0
62065,53.7937,-1975.77,0,0
63366.6,53.1766,-1931.89,0,0
64668.2,53.6699,-1889.39,0,0
65969.8,55.8575,-1851.57,0,0
67271.5,54.1665,-1814.36,0,0
68573.1,53.4316,-1778.5,0,0
69874.7,52.8842,-1743.77,0,0
71176.3,50.9343,-1709.31,0,0
72478,49.1162,-1675.28,0,0
73779.6,48.6723,-1641.72,0,0
75081.2,49.056,-1609.21,0,0
76382.825,49.7104,-1577.93,0,0
77684.45,50.6448,-1548.16,0,0
78986.075,52.4461,-1520.27,0,0
80287.7,51.6468,-1493.84,0,0
81589.325,50.9204,-1465.85,0,0
82890.95,51.4456,-1438.79,0,0
84192.575,52.7118,-1412.17,0,0
85494.2,54.8471,-1387.35,0,0
86795.825,55.7347,-1363.64,0,0
88097.45,56.3602,-1340.04,0,0
89399.075,57.9878,-1315.33,0,0
90700.7,61.2109,-1291.85,0,0
92002.3,66.9258,-1269.76,0,0
93303.9,75.1192,-1251.89,0,0
94605.6,75.1947,-1245.23,0,0
95907.2,68.0854,-1226.81,0,0
97208.8,66.2638,-1206.34,0,0
98510.4,65.7686,-1186.06,0,0
99812.1,64.6249,-1166.5,0,0
101114,63.9245,-1146.36,0,0
102415,64.0031,-1124.35,0,0
103717,68.4553,-1103.24,0,0
105019,75.079,-1085.74,0,0
106320.175,80.718,-1068.9,0,0
107621.8,86.6832,-1055.77,0,0
108923.425,90.9662,-1043.45,0,0
110225.05,94.4841,-1034.08,0,0
111526.675,95.3507,-1021.1,0,0
112828.3,99.0565,-1011.15,0,0
114129.925,99.644,-1003.93,0,0
115431.55,97.0761,-996.215,0,0
116733.175,92.2325,-985.948,0,0
118034.8,86.7506,-972.784,0,0
119336.425,83.9731,-957.439,0,0
120638.05,83.3922,-943.021,0,0
121939.675,81.3655,-930.144,0,0
123241,79.4587,-914.814,0,0
124543,79.5516,-899.537,0,0
125845,80.0597,-884.629,0,0
127146,80.9456,-870.126,0,0
128448,82.7251,-855.189,0,0
129749,84.9361,-840.623,0,0
131051,89.3551,-826.754,0,0
132353,93.7658,-815.136,0,0
133654,97.1682,-803.924,0,0
134956,101.079,-792.782,0,0
136258,104.584,-782.248,0,0
137559,110.458,-772.261,0,0
138860.775,113.926,-766.927,0,0
140162.4,113.427,-760.187,0,0
141464.025,112.004,-750.679,0,0
142765.65,112.1,-739.262,0,0
144067.275,113.502,-727.788,0,0
145368.9,115.605,-716.331,0,0
146670.525,119.502,-705.759,0,0
147972.15,122.336,-697.927,0,0
149273.775,123.14,-687.508,0,0
150575.4,126.108,-678.943,0,0
151877.025,124.451,-669.538,0,0
153178.65,123.241,-655.271,0,0
154480,125.654,-639.064,0,0
155782,131.376,-621.68,0,0
157084,142.497,-606.075,0,0
158385,155.026,-595.37,0,0
159687,164.221,-584.145,0,0
160988,181.402,-572.568,0,0
162290,199.18,-570.31,0,0
163592,210.828,-571.374,0,0
164893,223.06,-569.976,0,0
166195,237.69,-573.309,0,0
167497,248.079,-582.205,0,0
168798,251.801,-594.008,0,0
170100,247.37,-605.087,0,0
171401.375,238.017,-606.21,0,0
172703.0,234.712,-602.362,0,0
174004.625,232.002,-600.372,0,0
175306.25,230.876,-598.081,0,0
176607.875,228.53,-597.552,0,0
177909.5,224.228,-595.241,0,0
179211.125,219.088,-592.631,0,0
180512.75,212.732,-589.342,0,0
181814.375,205.123,-582.488,0,0
183116.0,197.46,-572.375,0,0
184417.625,191.237,-560.018,0,0
185719.25,188.237,-544.736,0,0
187021,187.117,-529.183,0,0
188322,189.406,-512.499,0,0
189624,193.029,-497.981,0,0
190926,196.376,-482.502,0,0
192227,201.755,-465.227,0,0
193529,210.774,-447.826,0,0
194831,221.206,-431.921,0,0
196132,234.074,-414.804,0,0
197434,249.834,-400.235,0,0
198735,265.678,-386.8,0,0
200037,282.528,-370.846,0,0
201339,304.09,-354.34,0,0
202640.35,332.759,-335.211,0,0
203941.975,372.65,-321.861,0,0
205243.6,423.051,-321.184,0,0
206545.225,472.443,-339.698,0,0
207846.85,510.065,-373.021,0,0
209148.475,535.317,-412.794,0,0
210450.1,543.06,-456.454,0,0
211751.725,530.999,-485.531,0,0
213053.35,523.437,-491.435,0,0
214354.975,536.45,-497.884,0,0
215656.6,547.81,-518.398,0,0
216958.225,552.156,-534.58,0,0
218259.85,559.358,-551.247,0,0
219561,568.504,-566.232,0,0
220863,583.29,-585.942,0,0
222165,599.317,-616.155,0,0
223466,605.393,-657.339,0,0
224768,601.536,-700.267,0,0
226070,585.876,-742.426,0,0
227371,563.341,-783.286,0,0
228673,527.472,-817.766,0,0
229974,485.833,-839.38,0,0
231276,443.613,-848.862,0,0
232578,406.21,-847.344,0,0
233879,378.442,-841.179,0,0
235180.95,356.486,-837.028,0,0
236482.575,334.45,-833.688,0,0
237784.2,313.01,-831.343,0,0
239085.825,289.478,-825.483,0,0
240387.45,269.129,-816.1,0,0
241689.075,251.79,-806.016,0,0
242990.7,235.552,-795.294,0,0
244292.325,222.477,-783.897,0,0
245593.95,210.189,-774.119,0,0
246895.575,197.823,-763.569,0,0
248197.2,186.554,-751.925,0,0
249498.825,176.888,-739.374,0,0
250800,169.086,-727.016,0,0
252102,162.641,-715.042,0,0
253404,156.396,-703.244,0,0
254705,151.532,-690.483,0,0
256007,148.791,-678.334,0,0
257309,146.662,-666.897,0,0
258610,145.271,-655.25,0,0
259912,146.117,-643.146,0,0
261213,149.61,-632.95,0,0
262515,153.748,-625.196,0,0
263817,158.224,-618.814,0,0
265118,163.683,-613.937,0,0
266420,170.237,-612.098,0,0
267721.55,176.272,-615.386,0,0
269023.175,176.107,-623.39,0,0
270324.8,167.708,-628.919,0,0
271626.425,156.601,-627.685,0,0
272928.05,147.538,-621.095,0,0
274229.675,142.037,-612.51,0,0
275531.3,139.617,-603.835,0,0
276832.925,139.1,-596.138,0,0
278134.55,140.151,-589.947,0,0
279436.175,140.777,-585.879,0,0
280737.8,140.821,-581.843,0,0
282039.425,141.045,-578.648,0,0
283341,139.491,-575.805,0,0
284643,138.549,-571.709,0,0
285944,137.436,-568.381,0,0
287246,134.918,-564.217,0,0
288548,132.938,-557.323,0,0
289849,135.363,-549.769,0,0
291151,139.017,-546.583,0,0
292452,140.363,-544.993,0,0
293754,139.586,-542.692,0,0
295056,138.626,-537.896,0,0
296357,139.909,-531.981,0,0
297659,143.028,-526.804,0,0
298960.525,147.564,-522.565,0,0
300262.15,152.557,-520.295,0,0
301563.775,157.651,-518.541,0,0
302865.4,164.231,-519.032,0,0
304167.025,168.673,-522.047,0,0
305468.65,172.165,-524.754,0,0
306770.275,175.864,-528.79,0,0
308071.9,177.872,-534.908,0,0
309373.525,177.228,-541.359,0,0
310675.15,175.167,-546.897,0,0
311976.775,171.981,-553.153,0,0
313278.4,165.884,-557.553,0,0
314580,160.485,-559.676,0,0
315882,155.712,-562.504,0,0
317183,149.131,-565.471,0,0
318485,141.126,-567.046,0,0
319787,132.267,-566.682,0,0
321088,123.626,-563.96,0,0
322390,116.034,-559.247,0,0
323691,110.487,-553.136,0,0
324993,107.255,-547.022,0,0
326295,105.8,-541.971,0,0
327596,104.857,-538.737,0,0
328898,103.548,-536.602,0,0
330200,101.482,-534.919,0,0
331501.125,98.7672,-533.432,0,0
332802.75,95.4787,-531.775,0,0
334104.375,91.6293,-529.964,0,0
335406.0,87.2951,-527.108,0,0
336707.625,83.3448,-523.339,0,0
338009.25,79.9417,-519.368,0,0
339310.875,77.1634,-515.206,0,0
340612.5,74.5406,-511.04,0,0
341914.125,72.3214,-507.008,0,0
343215.75,70.0411,-503.106,0,0
344517.375,67.9071,-499.031,0,0
345819.0,65.7749,-494.901,0,0
347121,63.7499,-490.534,0,0
348422,62.1913,-485.795,0,0
349724,61.1947,-481.222,0,0
351025,60.3036,-476.984,0,0
352327,59.5863,-472.67,0,0
353629,59.0442,-468.636,0,0
354930,58.6305,-464.777,0,0
356232,58.1227,-460.978,0,0
357534,57.6717,-457.206,0,0
358835,57.1967,-453.273,0,0
360137,57.0127,-449.275,0,0
361438,56.9503,-445.457,0,0
362740.1,56.9764,-441.589,0,0
364041.725,57.1259,-437.727,0,0
365343.35,57.5653,-433.778,0,0
366644.975,58.1951,-430.134,0,0
367946.6,58.4792,-426.449,0,0
369248.225,59.0737,-422.123,0,0
370549.85,60.6098,-417.565,0,0
371851.475,63.0626,-413.399,0,0
373153.1,66.3803,-410.149,0,0
374454.725,69.7299,-408.198,0,0
375756.35,72.5199,-407.021,0,0
377057.975,74.8412,-406.161,0,0
378359.6,76.949,-405.551,0,0
379661,78.6858,-405.109,0,0
380963,80.5329,-404.543,0,0
382264,82.9778,-404.946,0,0
383566,84.5269,-406.648,0,0
384868,84.6573,-408.943,0,0
386169,83.2661,-410.914,0,0
387471,80.8979,-411.875,0,0
388773,78.1373,-411.709,0,0
390074,75.7193,-410.551,0,0
391376,74.0699,-409.3,0,0
392677,72.162,-408.511,0,0
393979,69.4873,-407.331,0,0
395280.7,66.6303,-405.238,0,0
396582.325,64.0373,-402.273,0,0
397883.95,62.1769,-398.718,0,0
399185.575,61.0192,-395.048,0,0
400006.6,60.4969,-392.843,0,0

File: sample_2.csv
Frequency (Hz),Impedance (ohms),Phase (Radians),Temperature (C),Humidity (%)
10000.0,224.84,-11539.8,0,0
11301.625,200.233,-10219.9,0,0
12603.25,180.795,-9174.79,0,0
13904.875,186.445,-8327.69,0,0
15206.5,159.76,-7624.43,0,0
16508.125,141.497,-7023.43,0,0
17809.75,132.136,-6511.34,0,0
19111.375,127.76,-6067.43,0,0
20413.0,117.293,-5679.71,0,0
21714.625,126.735,-5349.39,0,0
23016.25,111.879,-5049.62,0,0
24317.875,102.253,-4780.91,0,0
25619.5,96.6789,-4534.53,0,0
26921.1,95.0735,-4314.42,0,0
28222.7,90.0494,-4112.7,0,0
29524.4,94.7932,-3928.03,0,0
30826,87.8272,-3772.29,0,0
32127.6,82.0618,-3616.58,0,0
33429.2,79.5599,-3476.81,0,0
34730.9,75.7202,-3345.1,0,0
36032.5,72.9759,-3222.48,0,0
37334.1,70.9873,-3107.89,0,0
38635.7,68.8524,-3001.94,0,0
39937.4,66.8333,-2902.12,0,0
41239,65.8367,-2808.31,0,0
42540.6,64.5987,-2720.93,0,0
43842.225,63.3407,-2638.21,0,0
45143.85,62.0497,-2559.84,0,0
46445.475,61.3487,-2486.89,0,0
47747.1,60.7596,-2416.32,0,0
49048.725,60.3372,-2352.79,0,0
50350.35,58.028,-2289.55,0,0
51651.975,56.6846,-2230.2,0,0
52953.6,54.9724,-2172.12,0,0
54255.225,54.2718,-2116.9,0,0
55556.85,53.952,-2064.2,0,0
56858.475,53.8064,-2014.19,0,0
58160.1,54.1558,-1966.46,0,0
59461.7,54.5944,-1920.06,0,0
60763.3,56.133,-1877.17,0,0
62065,59.072,-1838.6,0,0
63366.6,56.0072,-1800.51,0,0
64668.2,53.1297,-1763.03,0,0
65969.8,50.8482,-1723.76,0,0
67271.5,51.2893,-1685.64,0,0
68573.1,53.7268,-1651.32,0,0
69874.7,56.1828,-1620.43,0,0
71176.3,53.4166,-1592.58,0,0
72478,47.948,-1561.96,0,0
73779.6,45.1339,-1528.52,0,0
75081.2,45.2345,-1495.99,0,0
76382.825,46.9115,-1465.42,0,0
77684.45,49.5734,-1436.93,0,0
78986.075,52.9491,-1412.17,0,0
80287.7,52.2917,-1390.81,0,0
81589.325,49.2784,-1365.61,0,0
82890.95,47.9745,-1339.61,0,0
84192.575,48.7731,-1314.77,0,0
85494.2,49.2484,-1290.93,0,0
86795.825,50.1106,-1268.63,0,0
88097.45,50.5476,-1246.92,0,0
89399.075,51.1357,-1225.5,0,0
90700.7,50.9921,-1204.66,0,0
92002.3,52.4426,-1183.35,0,0
93303.9,55.1391,-1164.71,0,0
94605.6,55.2396,-1148.3,0,0
95907.2,54.0537,-1127.89,0,0
97208.8,57.2926,-1110.8,0,0
98510.4,56.7772,-1096.37,0,0
99812.1,53.3438,-1081.16,0,0
101114,50.6971,-1064.42,0,0
102415,47.1453,-1044.2,0,0
103717,45.9109,-1022.94,0,0
105019,49.0589,-1002.51,0,0
106320.175,53.7561,-984.95,0,0
107621.8,58.0975,-972.934,0,0
108923.425,56.8927,-961.425,0,0
110225.05,53.0774,-946.61,0,0
111526.675,51.2939,-928.749,0,0
112828.3,51.4366,-911.266,0,0
114129.925,52.3877,-893.86,0,0
115431.55,54.7029,-877.163,0,0
116733.175,57.1916,-860.849,0,0
118034.8,60.8899,-845.662,0,0
119336.425,65.1578,-831.708,0,0
120638.05,69.1141,-820.369,0,0
121939.675,69.4375,-809.58,0,0
123241,69.4461,-796.61,0,0
124543,69.9685,-783.498,0,0
125845,69.9923,-769.778,0,0
127146,70.6855,-754.71,0,0
128448,73.1331,-739.43,0,0
129749,76.9255,-724.951,0,0
131051,82.0366,-712.244,0,0
132353,85.1284,-701.718,0,0
133654,87.01,-690.463,0,0
134956,87.3751,-679.054,0,0
136258,87.9279,-665.231,0,0
137559,89.4922,-650.781,0,0
138860.775,91.0884,-636.494,0,0
140162.4,92.791,-620.087,0,0
141464.025,97.1087,-601.468,0,0
142765.65,105.162,-585.234,0,0
144067.275,112.413,-569.459,0,0
145368.9,120.73,-553.633,0,0
146670.525,129.684,-537.374,0,0
147972.15,141.733,-519.35,0,0
149273.775,159.592,-500.902,0,0
150575.4,185.015,-488.478,0,0
151877.025,212.324,-487.814,0,0
153178.65,232.321,-496.539,0,0
154480,242.577,-507.521,0,0
155782,248.889,-514.819,0,0
157084,250.916,-523.167,0,0
158385,248.132,-528.015,0,0
159687,242.674,-526.893,0,0
160988,242.095,-521.059,0,0
162290,250.341,-519.128,0,0
163592,245.94,-529.241,0,0
164893,233.53,-529.986,0,0
166195,218.472,-520.001,0,0
167497,208.334,-505.747,0,0
168798,201.305,-485.024,0,0
170100,200.019,-463.562,0,0
171401.375,202.193,-441.806,0,0
172703.0,208.859,-418.762,0,0
174004.625,218.193,-397.918,0,0
175306.25,231.752,-374.421,0,0
176607.875,251.153,-354.751,0,0
177909.5,274.313,-342.537,0,0
179211.125,295.668,-334.7,0,0
180512.75,307.299,-332.073,0,0
181814.375,316.214,-319.679,0,0
183116.0,327.937,-303.607,0,0
184417.625,347.912,-279.387,0,0
185719.25,377.242,-262.047,0,0
187021,406.183,-247.497,0,0
188322,443.883,-235.063,0,0
189624,477.722,-227.368,0,0
190926,519.983,-212.89,0,0
192227,575.449,-205.352,0,0
193529,643.624,-210.082,0,0
194831,713.89,-238.025,0,0
196132,774.494,-284.497,0,0
197434,830.025,-339.466,0,0
198735,875.697,-412.858,0,0
200037,901.327,-498.402,0,0
201339,905.39,-588.095,0,0
202640.35,884.332,-672.511,0,0
203941.975,845.273,-742.24,0,0
205243.6,805.824,-800.071,0,0
206545.225,750.626,-846.894,0,0
207846.85,692.941,-873.603,0,0
209148.475,650.615,-886.313,0,0
210450.1,609.377,-908.452,0,0
211751.725,556.738,-923.001,0,0
213053.35,505.972,-920.126,0,0
214354.975,463.537,-908.484,0,0
215656.6,428.54,-893.348,0,0
216958.225,400.867,-874.055,0,0
218259.85,381.385,-855.139,0,0
219561,367.283,-837.938,0,0
220863,356.31,-823.042,0,0
222165,350.439,-809.766,0,0
223466,345.579,-802.191,0,0
224768,339.175,-794.532,0,0
226070,334.563,-787.199,0,0
227371,333.104,-781.22,0,0
228673,334.745,-780.472,0,0
229974,331.932,-786.116,0,0
231276,324.411,-791.615,0,0
232578,314.098,-796.852,0,0
233879,300.914,-800.153,0,0
235180.95,286.957,-801.133,0,0
236482.575,272.354,-800.905,0,0
237784.2,256.402,-798.626,0,0
239085.825,241.46,-793.748,0,0
240387.45,226.524,-787.289,0,0
241689.075,212.944,-777.974,0,0
242990.7,203.012,-767.366,0,0
244292.325,196.335,-758.063,0,0
245593.95,190.891,-752.709,0,0
246895.575,181.608,-751.236,0,0
248197.2,167.071,-746.064,0,0
249498.825,152.174,-736.763,0,0
250800,138.103,-723.024,0,0
252102,127.909,-705.416,0,0
253404,122.761,-687.86,0,0
254705,119.889,-671.436,0,0
256007,118.917,-655.299,0,0
257309,120.43,-639.88,0,0
258610,123.831,-625.879,0,0
259912,129.159,-612.969,0,0
261213,136.434,-602.323,0,0
262515,144.384,-594.666,0,0
263817,151.783,-588.966,0,0
265118,159.101,-584.582,0,0
266420,165.83,-582.245,0,0
267721.55,172.388,-580.606,0,0
269023.175,178.504,-581.926,0,0
270324.8,180.608,-583.608,0,0
271626.425,181.926,-583.559,0,0
272928.05,183.292,-581.37,0,0
274229.675,188.402,-577.591,0,0
275531.3,198.566,-577.442,0,0
276832.925,209.409,-586.371,0,0
278134.55,212.212,-601.103,0,0
279436.175,206.901,-614.736,0,0
280737.8,197.445,-624.345,0,0
282039.425,186.502,-631.581,0,0
283341,171.245,-635.013,0,0
284643,158.297,-632.099,0,0
285944,145.436,-629.436,0,0
287246,130.778,-621.475,0,0
288548,119.637,-606.2,0,0
289849,118.162,-587.006,0,0
291151,125.659,-571.828,0,0
292452,139.676,-564.431,0,0
293754,151.019,-570.22,0,0
295056,150.687,-576.047,0,0
296357,153.447,-574.783,0,0
297659,159.377,-585.173,0,0
298960.525,152.066,-596.207,0,0
300262.15,141.108,-600.467,0,0
301563.775,131.468,-599.183,0,0
302865.4,125.53,-596.774,0,0
304167.025,120.05,-596.499,0,0
305468.65,112.727,-596.36,0,0
306770.275,104.335,-594.106,0,0
308071.9,96.6388,-590.351,0,0
309373.525,89.2809,-585.588,0,0
310675.15,82.8842,-579.976,0,0
311976.775,77.3269,-573.768,0,0
313278.4,72.5926,-567.406,0,0
314580,68.4503,-560.861,0,0
315882,65.0142,-554.213,0,0
317183,61.9892,-547.575,0,0
318485,59.6356,-540.79,0,0
319787,57.7336,-534.241,0,0
321088,56.1597,-527.745,0,0
322390,55.0177,-521.019,0,0
323691,54.424,-514.121,0,0
324993,54.7779,-506.912,0,0
326295,56.9492,-500.046,0,0
327596,60.4256,-495.208,0,0
328898,63.1574,-492.102,0,0
330200,65.8046,-489.608,0,0
331501.125,68.1115,-488.708,0,0
332802.75,68.7309,-489.241,0,0
334104.375,66.9617,-489.175,0,0
335406.0,64.367,-487.467,0,0
336707.625,61.9997,-484.828,0,0
338009.25,60.0253,-481.469,0,0
339310.875,58.3777,-477.952,0,0
340612.5,56.8777,-474.269,0,0
341914.125,55.4513,-470.438,0,0
343215.75,54.2129,-465.985,0,0
344517.375,53.5712,-461.234,0,0
345819.0,53.632,-456.488,0,0
347121,54.2146,-451.816,0,0
348422,55.2758,-447.457,0,0
349724,56.8513,-443.606,0,0
351025,58.7491,-440.39,0,0
352327,60.3159,-437.974,0,0
353629,61.3512,-435.441,0,0
354930,62.594,-432.74,0,0
356232,64.0652,-430.119,0,0
357534,66.0106,-427.648,0,0
358835,68.2709,-426.021,0,0
360137,70.363,-425.201,0,0
361438,71.7539,-425.06,0,0
362740.1,72.3964,-425.079,0,0
364041.725,72.3805,-424.828,0,0
365343.35,72.1316,-424.121,0,0
366644.975,72.0089,-423.045,0,0
367946.6,72.1728,-421.794,0,0
369248.225,73.0491,-421.056,0,0
370549.85,73.3341,-421.486,0,0
371851.475,72.4835,-421.557,0,0
373153.1,71.8022,-421.231,0,0
374454.725,70.9393,-421.337,0,0
375756.35,69.2801,-421.301,0,0
377057.975,67.4757,-420.785,0,0
378359.6,65.4547,-420.316,0,0
379661,62.3138,-419.611,0,0
380963,59.2002,-416.35,0,0
382264,59.0119,-413.41,0,0
383566,58.1123,-412.69,0,0
384868,55.5365,-411.495,0,0
386169,52.8228,-409.015,0,0
387471,50.7091,-405.868,0,0
388773,48.9866,-402.434,0,0
390074,48.1273,-398.818,0,0
391376,47.9889,-395.854,0,0
392677,47.2724,-394.005,0,0
393979,45.3436,-391.699,0,0
395280.7,43.2616,-388.126,0,0
396582.325,42.0634,-383.717,0,0
397883.95,41.8062,-379.226,0,0
399185.575,42.1833,-375.037,0,0
400006.6,42.6853,-372.628,0,0