Folder: ML_Dmg_Mehdi_Dataset/Accelerated corrosion test data/2025-10-04_18-00-03 (part 2)

File: sample_3.csv
Frequency (Hz),Impedance (ohms),Phase (Radians),Temperature (C),Humidity (%)
10000.0,251.706,-11772.1,0,0
11301.625,224.207,-10427.4,0,0
12603.25,203.327,-9358.03,0,0
13904.875,185.867,-8486.68,0,0
15206.5,172.815,-7758.43,0,0
16508.125,162.444,-7164.85,0,0
17809.75,157.221,-6636.6,0,0
19111.375,146.34,-6185.23,0,0
20413.0,157.183,-5783.81,0,0
21714.625,138.411,-5465.95,0,0
23016.25,128.297,-5160.03,0,0
24317.875,119.045,-4881.51,0,0
25619.5,114.294,-4634.79,0,0
26921.1,108.401,-4404.29,0,0
28222.7,104.033,-4198.81,0,0
29524.4,110.147,-4019.5,0,0
30826,100.545,-3849.33,0,0
32127.6,101.411,-3685.85,0,0
33429.2,100.027,-3560.22,0,0
34730.9,88.4628,-3423.37,0,0
36032.5,83.4047,-3295.85,0,0
37334.1,80.5536,-3178.06,0,0
38635.7,78.0924,-3068.4,0,0
39937.4,75.7267,-2966.12,0,0
41239,74.5346,-2869.3,0,0
42540.6,73.6261,-2779.63,0,0
43842.225,71.8676,-2694.12,0,0
45143.85,71.1134,-2614.7,0,0
46445.475,70.1689,-2539.12,0,0
47747.1,70.1558,-2466.52,0,0
49048.725,68.7736,-2401.4,0,0
50350.35,66.8598,-2336.21,0,0
51651.975,66.34,-2273.72,0,0
52953.6,66.7756,-2213.99,0,0
54255.225,69.4475,-2159.27,0,0
55556.85,66.9821,-2111.98,0,0
56858.475,62.0142,-2059.21,0,0
58160.1,61.3876,-2007.32,0,0
59461.7,61.9314,-1958.15,0,0
60763.3,63.2333,-1911.5,0,0
62065,65.3803,-1866.98,0,0
63366.6,68.9975,-1823.53,0,0
64668.2,77.5511,-1781.56,0,0
65969.8,91.7064,-1756.19,0,0
67271.5,76.7008,-1731.17,0,0
68573.1,76.554,-1693.75,0,0
69874.7,76.1042,-1664.54,0,0
71176.3,70.7897,-1634.15,0,0
72478,69.2471,-1601.44,0,0
73779.6,67.5974,-1573.06,0,0
75081.2,64.1176,-1544.76,0,0
76382.825,60.5532,-1515.54,0,0
77684.45,58.1498,-1486.66,0,0
78986.075,55.9449,-1458.18,0,0
80287.7,54.4658,-1430.19,0,0
81589.325,53.438,-1403.04,0,0
82890.95,52.9409,-1376.59,0,0
84192.575,52.6018,-1351,0,0
85494.2,52.5548,-1325.89,0,0
86795.825,52.7286,-1301.7,0,0
88097.45,53.3801,-1277.67,0,0
89399.075,54.539,-1253.91,0,0
90700.7,56.9455,-1232.03,0,0
92002.3,59.6491,-1211.04,0,0
93303.9,63.0776,-1192.34,0,0
94605.6,64.4688,-1177.86,0,0
95907.2,58.8516,-1160.84,0,0
97208.8,57.8664,-1139.76,0,0
98510.4,57.7638,-1120.74,0,0
99812.1,56.9933,-1102.2,0,0
101114,56.1453,-1082.7,0,0
102415,57.2223,-1062.16,0,0
103717,61.1255,-1044.37,0,0
105019,64.8105,-1030.52,0,0
106320.175,63.5864,-1017.46,0,0
107621.8,60.5304,-1001.58,0,0
108923.425,58.7034,-983.688,0,0
110225.05,58.6985,-964.853,0,0
111526.675,61.1035,-946.922,0,0
112828.3,63.2197,-930.869,0,0
114129.925,64.7958,-914.733,0,0
115431.55,67.1041,-897.987,0,0
116733.175,70.8688,-881.453,0,0
118034.8,76.4715,-865.759,0,0
119336.425,83.3214,-854.163,0,0
120638.05,88.6843,-847.784,0,0
121939.675,86.5029,-839.045,0,0
123241,86.8235,-825.985,0,0
124543,88.28,-814.829,0,0
125845,89.2956,-804.593,0,0
127146,88.5816,-794.919,0,0
128448,86.8353,-783.867,0,0
129749,84.9944,-770.607,0,0
131051,86.099,-757.36,0,0
132353,85.6963,-746.253,0,0
133654,85.0369,-734.088,0,0
134956,83.736,-721.659,0,0
136258,82.5101,-707.89,0,0
137559,82.4457,-692.989,0,0
138860.775,83.7865,-679.474,0,0
140162.4,83.0039,-666.095,0,0
141464.025,82.934,-651.656,0,0
142765.65,82.4012,-635.987,0,0
144067.275,82.6584,-618.829,0,0
145368.9,84.3101,-600.955,0,0
146670.525,86.8658,-582.112,0,0
147972.15,91.3781,-562.303,0,0
149273.775,97.8814,-542.172,0,0
150575.4,108.181,-521.662,0,0
151877.025,121.069,-504.853,0,0
153178.65,133.718,-491.191,0,0
154480,143.867,-478.722,0,0
155782,152.54,-462.734,0,0
157084,164.07,-445.959,0,0
158385,179.676,-433.091,0,0
159687,186.96,-418.301,0,0
160988,200.944,-390.659,0,0
162290,227.668,-365.222,0,0
163592,265.604,-345.607,0,0
164893,312.577,-336.814,0,0
166195,366.235,-348.923,0,0
167497,404.704,-381.253,0,0
168798,424.842,-421.799,0,0
170100,426.988,-460.598,0,0
171401.375,409.427,-479.461,0,0
172703.0,404.113,-482.11,0,0
174004.625,411.388,-487.935,0,0
175306.25,416.62,-506.996,0,0
176607.875,407.555,-528.341,0,0
177909.5,388.376,-542.501,0,0
179211.125,363.947,-536.303,0,0
180512.75,357.655,-521.846,0,0
181814.375,361.61,-517.573,0,0
183116.0,354.793,-524.228,0,0
184417.625,341.285,-520.132,0,0
185719.25,328.375,-507.6,0,0
187021,322.099,-485.26,0,0
188322,328.345,-466.121,0,0
189624,334.257,-452.121,0,0
190926,343.842,-437.406,0,0
192227,353.23,-423.471,0,0
193529,365.036,-406.713,0,0
194831,388.201,-388.05,0,0
196132,419.46,-386.041,0,0
197434,443.455,-396.487,0,0
198735,455.086,-404.683,0,0
200037,464.397,-406.14,0,0
201339,470.684,-404.839,0,0
202640.35,485.89,-394.892,0,0
203941.975,515.303,-390.871,0,0
205243.6,545.171,-401.189,0,0
206545.225,561.42,-419.339,0,0
207846.85,577.556,-421.554,0,0
209148.475,606.919,-428.059,0,0
210450.1,640.04,-447.999,0,0
211751.725,667.648,-477.036,0,0
213053.35,690.465,-512.018,0,0
214354.975,707.198,-554.035,0,0
215656.6,715.874,-598.858,0,0
216958.225,715.91,-647.852,0,0
218259.85,701.835,-694.757,0,0
219561,680.008,-733.473,0,0
220863,662.868,-768.659,0,0
222165,630.66,-807.683,0,0
223466,586.473,-834.306,0,0
224768,543.509,-837.48,0,0
226070,519.823,-834.013,0,0
227371,503.053,-842.304,0,0
228673,479.035,-854.254,0,0
229974,449.924,-861.761,0,0
231276,420.528,-863.359,0,0
232578,394.045,-860.532,0,0
233879,369.943,-856.241,0,0
235180.95,347.241,-851.771,0,0
236482.575,323.357,-847.011,0,0
237784.2,299.162,-837.503,0,0
239085.825,275.637,-824.014,0,0
240387.45,257.621,-805.548,0,0
241689.075,244.619,-787.755,0,0
242990.7,235.614,-769.789,0,0
244292.325,230.894,-754.032,0,0
245593.95,226.538,-742.23,0,0
246895.575,221.712,-730.87,0,0
248197.2,217.563,-719.172,0,0
249498.825,216.58,-707.969,0,0
250800,215.551,-701.63,0,0
252102,209.942,-696.097,0,0
253404,201.689,-685.969,0,0
254705,196.931,-670.845,0,0
256007,197.298,-653.963,0,0
257309,204.969,-639.65,0,0
258610,214.251,-631.501,0,0
259912,224.616,-624.107,0,0
261213,239.206,-623.886,0,0
262515,251.005,-634.562,0,0
263817,251.063,-649.322,0,0
265118,242.509,-661.315,0,0
266420,227.652,-666.294,0,0
267721.55,212.964,-662.618,0,0
269023.175,202.918,-654.057,0,0
270324.8,197.552,-644.444,0,0
271626.425,195.155,-635.043,0,0
272928.05,195.671,-627.584,0,0
274229.675,195.466,-621.292,0,0
275531.3,197.833,-613.674,0,0
276832.925,204.644,-608.512,0,0
278134.55,212.749,-610.28,0,0
279436.175,216.306,-617.818,0,0
280737.8,212.804,-625.393,0,0
282039.425,206.308,-629.709,0,0
283341,197.675,-631.49,0,0
284643,189.219,-629.673,0,0
285944,181.459,-625.783,0,0
287246,175.504,-618.961,0,0
288548,174.272,-611.613,0,0
289849,174.909,-608.22,0,0
291151,173.898,-606.592,0,0
292452,171.004,-604.597,0,0
293754,169.083,-600.229,0,0
295056,170.384,-596.403,0,0
296357,172.935,-596.643,0,0
297659,172.713,-599.843,0,0
298960.525,168.861,-603.205,0,0
300262.15,163.096,-604.735,0,0
301563.775,156.421,-604.706,0,0
302865.4,149.38,-602.7,0,0
304167.025,143.118,-599.164,0,0
305468.65,137.778,-594.677,0,0
306770.275,133.518,-589.509,0,0
308071.9,131.021,-584.308,0,0
309373.525,129.41,-580.844,0,0
310675.15,126.635,-578.37,0,0
311976.775,122.909,-575.422,0,0
313278.4,118.329,-571.349,0,0
314580,114.629,-565.088,0,0
315882,113.542,-558.28,0,0
317183,114.484,-553.121,0,0
318485,115.424,-550.046,0,0
319787,115.281,-547.611,0,0
321088,115.084,-544.854,0,0
322390,115.68,-542.728,0,0
323691,116.107,-542.55,0,0
324993,114.744,-543.321,0,0
326295,111.528,-543.675,0,0
327596,107.272,-542.866,0,0
328898,103.052,-540.781,0,0
330200,99.0574,-538.269,0,0
331501.125,94.968,-535.561,0,0
332802.75,90.4913,-532.006,0,0
334104.375,86.155,-527.549,0,0
335406.0,82.3283,-522.047,0,0
336707.625,79.5874,-515.911,0,0
338009.25,77.7631,-509.808,0,0
339310.875,76.5937,-503.475,0,0
340612.5,76.6379,-496.662,0,0
341914.125,78.6765,-491.017,0,0
343215.75,81.2096,-487.43,0,0
344517.375,82.8433,-485.479,0,0
345819.0,83.0435,-483.813,0,0
347121,82.494,-481.53,0,0
348422,81.8563,-478.807,0,0
349724,81.4821,-475.381,0,0
351025,82.287,-472.076,0,0
352327,83.7304,-470.287,0,0
353629,83.8279,-469.802,0,0
354930,82.2107,-468.899,0,0
356232,80.2621,-466.5,0,0
357534,78.8094,-463.664,0,0
358835,77.5792,-460.394,0,0
360137,77.092,-456.761,0,0
361438,77.1414,-453.542,0,0
362740.1,77.1993,-450.644,0,0
364041.725,77.7223,-447.481,0,0
365343.35,79.253,-445.365,0,0
366644.975,79.8171,-445.079,0,0
367946.6,78.0258,-444.704,0,0
369248.225,75.253,-441.98,0,0
370549.85,74.694,-437.162,0,0
371851.475,76.5824,-434.314,0,0
373153.1,77.1881,-433.822,0,0
374454.725,75.5499,-432.851,0,0
375756.35,73.6647,-430.144,0,0
377057.975,72.8414,-426.398,0,0
378359.6,73.2641,-422.964,0,0
379661,74.111,-420.184,0,0
380963,74.9448,-418.272,0,0
382264,75.4191,-416.835,0,0
383566,75.2843,-415.725,0,0
384868,74.4176,-414.417,0,0
386169,73.0788,-412.433,0,0
387471,71.9863,-409.743,0,0
388773,71.0503,-406.621,0,0
390074,70.6288,-402.826,0,0
391376,71.3115,-398.869,0,0
392677,72.9996,-395.272,0,0
393979,75.3829,-392.673,0,0
395280.7,77.8372,-391.306,0,0
396582.325,79.9162,-391.042,0,0
397883.95,81.0109,-391.527,0,0
399185.575,80.832,-392.063,0,0
400006.6,80.2536,-392.219,0,0

File: sample_4.csv
Frequency (Hz),Impedance (ohms),Phase (Radians),Temperature (C),Humidity (%)
10000.0,263.763,-11848.4,0,0
11301.625,234.239,-10497.3,0,0
12603.25,213.064,-9417.3,0,0
13904.875,193.643,-8538.67,0,0
15206.5,181.83,-7816.26,0,0
16508.125,186.747,-7199.47,0,0
17809.75,156.11,-6695.31,0,0
19111.375,145.392,-6240.2,0,0
20413.0,141.592,-5841.25,0,0
21714.625,145.897,-5495.41,0,0
23016.25,125.627,-5196.89,0,0
24317.875,116.688,-4912.57,0,0
25619.5,112.078,-4660.53,0,0
26921.1,106.976,-4431.13,0,0
28222.7,119.663,-4226.02,0,0
29524.4,112.668,-4049.76,0,0
30826,99.6874,-3877.58,0,0
32127.6,99.2818,-3718,0,0
33429.2,90.2968,-3577.5,0,0
34730.9,85.4498,-3439.79,0,0
36032.5,82.0331,-3312.29,0,0
37334.1,80.155,-3194.02,0,0
38635.7,77.3167,-3082.21,0,0
39937.4,76.9865,-2976.88,0,0
41239,79.5418,-2882.01,0,0
42540.6,78.9823,-2794.6,0,0
43842.225,74.1565,-2711.07,0,0
45143.85,71.6191,-2630.42,0,0
46445.475,70.6525,-2553.73,0,0
47747.1,70.3731,-2483.79,0,0
49048.725,66.4596,-2414.89,0,0
50350.35,64.5352,-2347.7,0,0
51651.975,64.0754,-2282.72,0,0
52953.6,65.946,-2220.07,0,0
54255.225,73.7972,-2164.09,0,0
55556.85,72.1168,-2120.61,0,0
56858.475,65.9358,-2067.35,0,0
58160.1,66.8443,-2015.06,0,0
59461.7,71.0789,-1964.41,0,0
60763.3,80.3691,-1926.77,0,0
62065,69.8803,-1893.63,0,0
63366.6,64.7025,-1848.01,0,0
64668.2,64.5479,-1804.57,0,0
65969.8,66.5144,-1764.49,0,0
67271.5,70.538,-1728.41,0,0
68573.1,73.9358,-1699.51,0,0
69874.7,66.4258,-1669.44,0,0
71176.3,65.4351,-1635.52,0,0
72478,59.3529,-1604.24,0,0
73779.6,57.7592,-1567.61,0,0
75081.2,59.8749,-1534.98,0,0
76382.825,62.411,-1506.14,0,0
77684.45,65.1535,-1478.45,0,0
78986.075,64.0903,-1455.97,0,0
80287.7,61.0436,-1429.24,0,0
81589.325,60.4744,-1403.26,0,0
82890.95,59.1813,-1378.26,0,0
84192.575,58.0099,-1353.5,0,0
85494.2,57.243,-1329.18,0,0
86795.825,56.5607,-1305.66,0,0
88097.45,55.2061,-1283.19,0,0
89399.075,53.7131,-1258.78,0,0
90700.7,53.6516,-1235.81,0,0
92002.3,53.896,-1212.83,0,0
93303.9,55.2422,-1192.13,0,0
94605.6,53.8178,-1171.76,0,0
95907.2,53.1919,-1149.35,0,0
97208.8,54.0485,-1127.78,0,0
98510.4,55.2819,-1106.5,0,0
99812.1,57.8553,-1085.78,0,0
101114,62.0131,-1067.24,0,0
102415,61.08,-1052.75,0,0
103717,58.129,-1030.32,0,0
105019,61.749,-1006.73,0,0
106320.175,68.1623,-986.51,0,0
107621.8,74.6735,-968.541,0,0
108923.425,82.6836,-951.561,0,0
110225.05,90.6662,-938.6,0,0
111526.675,97.0452,-927.284,0,0
112828.3,102.524,-917.006,0,0
114129.925,106.502,-908.301,0,0
115431.55,108.827,-900.359,0,0
116733.175,108.596,-892.378,0,0
118034.8,106.482,-882.011,0,0
119336.425,107.592,-868.283,0,0
120638.05,112.491,-863.212,0,0
121939.675,105.55,-857.129,0,0
123241,100.496,-844.846,0,0
124543,97.3897,-832.355,0,0
125845,94.9931,-819.901,0,0
127146,91.9366,-808.943,0,0
128448,87.0854,-796.932,0,0
129749,80.6474,-782.341,0,0
131051,76.0007,-764.739,0,0
132353,73.443,-746.133,0,0
133654,72.602,-727.3,0,0
134956,73.2591,-708.369,0,0
136258,75.4462,-690.096,0,0
137559,78.2451,-672.73,0,0
138860.775,80.0741,-655.12,0,0
140162.4,83.3214,-636.233,0,0
141464.025,88.3784,-617.226,0,0
142765.65,94.3282,-599.099,0,0
144067.275,100.883,-580.801,0,0
145368.9,108.638,-562.294,0,0
146670.525,117.888,-543.712,0,0
147972.15,128.833,-525.678,0,0
149273.775,141.249,-507.464,0,0
150575.4,156.367,-489.735,0,0
151877.025,175.109,-473.716,0,0
153178.65,196.88,-461.675,0,0
154480,218.206,-456.472,0,0
155782,235.292,-452.643,0,0
157084,250.646,-450.725,0,0
158385,265.083,-444.955,0,0
159687,286.037,-442.19,0,0
160988,304.02,-449.438,0,0
162290,310.359,-456.553,0,0
163592,315.227,-455.108,0,0
164893,324.724,-447.817,0,0
166195,340.934,-442.752,0,0
167497,366.419,-440.919,0,0
168798,395.112,-457.701,0,0
170100,411.043,-487.397,0,0
171401.375,407.834,-525.151,0,0
172703.0,383.166,-550.474,0,0
174004.625,349.703,-556.294,0,0
175306.25,322.269,-544.843,0,0
176607.875,304.304,-523.893,0,0
177909.5,297.424,-500.377,0,0
179211.125,297.194,-479.875,0,0
180512.75,300.217,-461.126,0,0
181814.375,304.12,-444.443,0,0
183116.0,307.35,-427.288,0,0
184417.625,311.725,-406.472,0,0
185719.25,319.867,-382.959,0,0
187021,333.061,-357.515,0,0
188322,351.537,-330.826,0,0
189624,377.266,-303.964,0,0
190926,411.391,-278.405,0,0
192227,454.472,-258.096,0,0
193529,504.518,-245.806,0,0
194831,558.795,-242.355,0,0
196132,616.755,-247.525,0,0
197434,680.517,-261.86,0,0
198735,750.073,-294.617,0,0
200037,815.336,-352.377,0,0
201339,859.784,-431.388,0,0
202640.35,876.313,-518.002,0,0
203941.975,870.874,-594.726,0,0
205243.6,853.822,-665.21,0,0
206545.225,825.637,-728.342,0,0
207846.85,789.893,-786.052,0,0
209148.475,734.904,-832.416,0,0
210450.1,678.133,-853.203,0,0
211751.725,630.463,-860.234,0,0
213053.35,592.328,-857.641,0,0
214354.975,566.001,-851.325,0,0
215656.6,550.965,-851.534,0,0
216958.225,533.3,-859.627,0,0
218259.85,511.847,-866.814,0,0
219561,490.327,-871.272,0,0
220863,469.139,-877.392,0,0
222165,445.141,-881.574,0,0
223466,421.898,-882.253,0,0
224768,399.186,-883.526,0,0
226070,373.788,-884.7,0,0
227371,345.348,-880.411,0,0
228673,317.379,-871.18,0,0
229974,292.568,-855.253,0,0
231276,274.472,-836.665,0,0
232578,260.669,-819.076,0,0
233879,250.285,-801.621,0,0
235180.95,242.668,-785.813,0,0
236482.575,236.797,-771.756,0,0
237784.2,231.915,-757.72,0,0
239085.825,230.29,-745.37,0,0
240387.45,229.205,-736.12,0,0
241689.075,227.145,-729.245,0,0
242990.7,223.695,-723.376,0,0
244292.325,218.639,-717.574,0,0
245593.95,211.867,-710.38,0,0
246895.575,205.96,-700.519,0,0
248197.2,202.839,-690.209,0,0
249498.825,200.459,-681.91,0,0
250800,197.491,-673.73,0,0
252102,193.685,-666.508,0,0
253404,187.04,-656.761,0,0
254705,182.773,-642.625,0,0
256007,180.919,-626.465,0,0
257309,184.122,-608.426,0,0
258610,192.121,-591.003,0,0
259912,206.352,-575.18,0,0
261213,225.759,-565.761,0,0
262515,246.157,-563.653,0,0
263817,266.777,-567.51,0,0
265118,284.416,-578.811,0,0
266420,298.347,-595.906,0,0
267721.55,302.74,-618.536,0,0
269023.175,299.352,-639.193,0,0
270324.8,285.865,-656.873,0,0
271626.425,272.918,-662.406,0,0
272928.05,264.825,-669.995,0,0
274229.675,252.757,-678.338,0,0
275531.3,235.828,-685.402,0,0
276832.925,214.671,-684.826,0,0
278134.55,195.904,-675.463,0,0
279436.175,184.908,-660.262,0,0
280737.8,182.889,-647.762,0,0
282039.425,181.366,-641.074,0,0
283341,179.699,-633.12,0,0
284643,180.525,-629.869,0,0
285944,177.79,-627.612,0,0
287246,171.865,-624.345,0,0
288548,165.824,-615.106,0,0
289849,166.71,-601.546,0,0
291151,176.572,-592.337,0,0
292452,188.602,-592.405,0,0
293754,197.707,-600.198,0,0
295056,198.675,-613.321,0,0
296357,190.532,-624.108,0,0
297659,178.91,-628.208,0,0
298960.525,168.834,-627.658,0,0
300262.15,160.46,-625.977,0,0
301563.775,152.143,-623.626,0,0
302865.4,144.306,-619.357,0,0
304167.025,137.636,-614.319,0,0
305468.65,132.261,-608.355,0,0
306770.275,128.555,-602.259,0,0
308071.9,126.23,-597.158,0,0
309373.525,123.881,-593.303,0,0
310675.15,121.084,-589.825,0,0
311976.775,117.654,-586.205,0,0
313278.4,114.549,-581.671,0,0
314580,112.349,-577.073,0,0
315882,111.051,-572.936,0,0
317183,110.017,-569.873,0,0
318485,108.656,-568.057,0,0
319787,106.204,-566.795,0,0
321088,102.268,-565.971,0,0
322390,96.1662,-564.183,0,0
323691,89.1137,-559.181,0,0
324993,84.5826,-552.042,0,0
326295,81.6558,-545.333,0,0
327596,79.143,-538.63,0,0
328898,77.4856,-531.616,0,0
330200,77.3223,-524.511,0,0
331501.125,78.6108,-518.793,0,0
332802.75,79.8034,-514.779,0,0
334104.375,79.9197,-511.939,0,0
335406.0,78.6492,-508.737,0,0
336707.625,76.8276,-504.642,0,0
338009.25,75.3132,-499.14,0,0
339310.875,74.9729,-492.73,0,0
340612.5,76.2259,-486.506,0,0
341914.125,79.2078,-480.707,0,0
343215.75,83.594,-477.079,0,0
344517.375,87.4209,-476.351,0,0
345819.0,89.1708,-476.835,0,0
347121,89.1236,-477.215,0,0
348422,87.9667,-476.981,0,0
349724,85.9897,-475.816,0,0
351025,83.8257,-473.652,0,0
352327,81.866,-470.599,0,0
353629,80.6483,-466.677,0,0
354930,80.976,-463.018,0,0
356232,81.1732,-460.562,0,0
357534,80.8957,-458.531,0,0
358835,79.3883,-456.22,0,0
360137,77.9721,-452.275,0,0
361438,77.8035,-448.076,0,0
362740.1,78.479,-444.017,0,0
364041.725,79.6279,-440.856,0,0
365343.35,79.718,-438.201,0,0
366644.975,79.6615,-434.191,0,0
367946.6,80.85,-429.368,0,0
369248.225,83.9285,-424.729,0,0
370549.85,88.3945,-421.456,0,0
371851.475,93.9581,-420.215,0,0
373153.1,98.9265,-422.057,0,0
374454.725,100.81,-425.777,0,0
375756.35,100.262,-428.2,0,0
377057.975,99.3527,-429.521,0,0
378359.6,98.0951,-430.346,0,0
379661,96.8426,-430.634,0,0
380963,95.3666,-430.816,0,0
382264,93.9835,-430.029,0,0
383566,94.2692,-430.038,0,0
384868,92.841,-432.659,0,0
386169,88.3404,-434.111,0,0
387471,82.8024,-432.765,0,0
388773,78.679,-428.669,0,0
390074,77.6387,-424.214,0,0
391376,78.3675,-422.183,0,0
392677,77.398,-422.713,0,0
393979,73.4927,-422.618,0,0
395280.7,68.8297,-419.99,0,0
396582.325,65.278,-415.859,0,0
397883.95,62.8255,-411.143,0,0
399185.575,61.0999,-406.36,0,0
400006.6,60.356,-403.268,0,0