Folder: ML_Dmg_Mehdi_Dataset/Accelerated corrosion test data/2025-10-02_18-00-03 (part 3)

File: sample_6.csv
Frequency (Hz),Impedance (ohms),Phase (Radians),Temperature (C),Humidity (%)
10000.0,4315.21,-6237.53,0,0
11301.625,3696.78,-5912.52,0,0
12603.25,3198.58,-5593.11,0,0
13904.875,2792.08,-5295.82,0,0
15206.5,2457.1,-5013.06,0,0
16508.125,2177.66,-4751.25,0,0
17809.75,1944.09,-4510.4,0,0
19111.375,1747.49,-4286.13,0,0
20413.0,1578.02,-4082.13,0,0
21714.625,1432.07,-3892.62,0,0
23016.25,1310.76,-3713.07,0,0
24317.875,1201.45,-3560.22,0,0
25619.5,1104.75,-3410.59,0,0
26921.1,1019.25,-3270.52,0,0
28222.7,946.779,-3143.27,0,0
29524.4,879.525,-3021.08,0,0
30826,822.514,-2909,0,0
32127.6,771.548,-2801.74,0,0
33429.2,731.528,-2705.05,0,0
34730.9,689.664,-2619.8,0,0
36032.5,650.709,-2539.86,0,0
37334.1,610.514,-2459.96,0,0
38635.7,575.77,-2381.75,0,0
39937.4,546.689,-2307.42,0,0
41239,519.674,-2238.47,0,0
42540.6,495.647,-2174.24,0,0
43842.225,474.752,-2108.88,0,0
45143.85,457.075,-2047.41,0,0
46445.475,445.525,-1993.35,0,0
47747.1,432.983,-1944.34,0,0
49048.725,423.18,-1901.73,0,0
50350.35,403.768,-1868.16,0,0
51651.975,380.44,-1825.26,0,0
52953.6,363.404,-1781.8,0,0
54255.225,345.418,-1740.61,0,0
55556.85,328.628,-1700.18,0,0
56858.475,315.035,-1654.3,0,0
58160.1,309.34,-1616.8,0,0
59461.7,299.319,-1584.38,0,0
60763.3,286.575,-1551.32,0,0
62065,273.56,-1515.81,0,0
63366.6,268.777,-1478.56,0,0
64668.2,261.894,-1453.1,0,0
65969.8,252.618,-1423.69,0,0
67271.5,240.964,-1394.89,0,0
68573.1,231.499,-1362.92,0,0
69874.7,224.34,-1331,0,0
71176.3,220.252,-1299.63,0,0
72478,218.496,-1270.54,0,0
73779.6,218.111,-1244.57,0,0
75081.2,216.742,-1220.8,0,0
76382.825,215.282,-1198.5,0,0
77684.45,213.508,-1176.15,0,0
78986.075,212.93,-1155.38,0,0
80287.7,212.118,-1136.69,0,0
81589.325,209.8,-1119.23,0,0
82890.95,206.427,-1102.17,0,0
84192.575,201.763,-1084.19,0,0
85494.2,198.141,-1064.64,0,0
86795.825,196.384,-1045.82,0,0
88097.45,194.743,-1028.53,0,0
89399.075,193.45,-1011.37,0,0
90700.7,192.704,-995.367,0,0
92002.3,189.954,-980.537,0,0
93303.9,188.276,-963.937,0,0
94605.6,188.597,-946.528,0,0
95907.2,189.595,-933.617,0,0
97208.8,187.895,-921.676,0,0
98510.4,186.064,-904.851,0,0
99812.1,192.346,-892.639,0,0
101114,191.154,-887.93,0,0
102415,187.373,-877.029,0,0
103717,184.117,-871.279,0,0
105019,172.243,-863.639,0,0
106320.175,159.524,-843.769,0,0
107621.8,156.903,-820.669,0,0
108923.425,159.806,-802.76,0,0
110225.05,162.163,-787.34,0,0
111526.675,165.108,-772.672,0,0
112828.3,168.822,-759.973,0,0
114129.925,173.337,-749.04,0,0
115431.55,176.269,-739.61,0,0
116733.175,180.135,-732.483,0,0
118034.8,177.605,-725.724,0,0
119336.425,177.806,-712.949,0,0
120638.05,185.479,-701.553,0,0
121939.675,188.952,-703.445,0,0
123241,183.956,-698.585,0,0
124543,180.873,-691.957,0,0
125845,176.654,-683.746,0,0
127146,172.616,-674.112,0,0
128448,171.847,-661.951,0,0
129749,174.387,-653.744,0,0
131051,174.481,-648.323,0,0
132353,172.207,-643.453,0,0
133654,167.361,-638.017,0,0
134956,160.986,-629.831,0,0
136258,154.913,-619.047,0,0
137559,150.294,-606.572,0,0
138860.775,147.151,-593.259,0,0
140162.4,145.621,-579.496,0,0
141464.025,145.718,-566.02,0,0
142765.65,146.028,-553.376,0,0
144067.275,148.102,-539.802,0,0
145368.9,151.827,-529.697,0,0
146670.525,152.492,-520.486,0,0
147972.15,152.051,-510.04,0,0
149273.775,151.496,-497.606,0,0
150575.4,152.078,-482.851,0,0
151877.025,156.023,-466.062,0,0
153178.65,166.649,-453.112,0,0
154480,172.835,-445.628,0,0
155782,178.65,-433.982,0,0
157084,189.601,-426.397,0,0
158385,194.983,-423.789,0,0
159687,197.26,-418.594,0,0
160988,199.584,-411.96,0,0
162290,201.182,-405.62,0,0
163592,202.303,-397.477,0,0
164893,201.985,-387.958,0,0
166195,204.191,-375.564,0,0
167497,207.848,-364.234,0,0
168798,212.056,-352.464,0,0
170100,216.852,-341.41,0,0
171401.375,220.993,-329.592,0,0
172703.0,225.743,-317.128,0,0
174004.625,230.222,-303.721,0,0
175306.25,235.273,-287.921,0,0
176607.875,242.47,-269.712,0,0
177909.5,253.021,-250.072,0,0
179211.125,267.665,-229.234,0,0
180512.75,287.942,-210.639,0,0
181814.375,310.883,-195.889,0,0
183116.0,334.334,-185.282,0,0
184417.625,357.891,-176.738,0,0
185719.25,379.172,-172.64,0,0
187021,394.228,-167.288,0,0
188322,405.928,-152.051,0,0
189624,424.573,-125.848,0,0
190926,460.005,-92.6641,0,0
192227,514.24,-67.4111,0,0
193529,577.297,-52.116,0,0
194831,654.415,-49.6043,0,0
196132,736.454,-69.3886,0,0
197434,815.186,-108.678,0,0
198735,888.556,-162.98,0,0
200037,955.651,-236.777,0,0
201339,1010.23,-328.73,0,0
202640.35,1042.34,-445.703,0,0
203941.975,1030.7,-565.993,0,0
205243.6,991.183,-668.886,0,0
206545.225,931.923,-751.776,0,0
207846.85,864.629,-810.195,0,0
209148.475,799.763,-848.987,0,0
210450.1,742.315,-877.095,0,0
211751.725,687.377,-905.71,0,0
213053.35,622.209,-926.312,0,0
214354.975,557.201,-929.61,0,0
215656.6,500.104,-920.722,0,0
216958.225,452.455,-905.346,0,0
218259.85,411.919,-887.074,0,0
219561,378.019,-866.91,0,0
220863,349.483,-846.039,0,0
222165,324.984,-824.485,0,0
223466,304.637,-801.807,0,0
224768,289.722,-778.455,0,0
226070,280.982,-755.677,0,0
227371,278.569,-737.537,0,0
228673,278.22,-727.253,0,0
229974,273.132,-723.013,0,0
231276,262.126,-717.682,0,0
232578,249.483,-708.178,0,0
233879,238.461,-695.117,0,0
235180.95,230.637,-680.47,0,0
236482.575,225.409,-665.869,0,0
237784.2,222.399,-651.783,0,0
239085.825,221.245,-638.507,0,0
240387.45,221.555,-626.275,0,0
241689.075,222.844,-614.818,0,0
242990.7,225.324,-604.066,0,0
244292.325,229.045,-593.977,0,0
245593.95,233.974,-584.491,0,0
246895.575,241.299,-575.321,0,0
248197.2,252.063,-568.559,0,0
249498.825,263.874,-566.692,0,0
250800,273.781,-567.102,0,0
252102,286.389,-567.958,0,0
253404,302.093,-575.603,0,0
254705,314.665,-592.736,0,0
256007,318.207,-615.694,0,0
257309,312.116,-638.015,0,0
258610,299.147,-656.587,0,0
259912,281.888,-670.047,0,0
261213,262.577,-677.934,0,0
262515,243.581,-680.666,0,0
263817,226.36,-680.108,0,0
265118,210.533,-677.294,0,0
266420,196.307,-672.822,0,0
267721.55,183.734,-667.132,0,0
269023.175,172.541,-660.845,0,0
270324.8,162.501,-654.368,0,0
271626.425,153.304,-647.47,0,0
272928.05,144.948,-640.398,0,0
274229.675,137.286,-633.006,0,0
275531.3,130.434,-625.386,0,0
276832.925,124.319,-617.596,0,0
278134.55,118.919,-609.739,0,0
279436.175,114.255,-601.612,0,0
280737.8,111.049,-593.46,0,0
282039.425,108.749,-586.527,0,0
283341,106.255,-580.205,0,0
284643,104.003,-573.905,0,0
285944,102.371,-567.926,0,0
287246,100.927,-562.969,0,0
288548,98.8955,-558.048,0,0
289849,97.2045,-553.048,0,0
291151,95.7359,-548.399,0,0
292452,94.4259,-544.187,0,0
293754,92.8789,-540.589,0,0
295056,90.5251,-537.289,0,0
296357,87.3665,-533.355,0,0
297659,84.1856,-528.152,0,0
298960.525,82.457,-522.017,0,0
300262.15,81.9831,-516.82,0,0
301563.775,81.4956,-512.52,0,0
302865.4,80.7564,-508.611,0,0
304167.025,79.7606,-504.732,0,0
305468.65,79.0771,-500.375,0,0
306770.275,79.4567,-496.686,0,0
308071.9,79.3309,-494.271,0,0
309373.525,78.2514,-491.847,0,0
310675.15,77.031,-489.272,0,0
311976.775,75.4924,-486.634,0,0
313278.4,73.8798,-483.773,0,0
314580,72.2701,-480.657,0,0
315882,70.7752,-477.469,0,0
317183,69.3267,-474.339,0,0
318485,67.9195,-471.228,0,0
319787,66.3703,-468.05,0,0
321088,64.7663,-464.653,0,0
322390,63.495,-461.072,0,0
323691,62.4885,-457.638,0,0
324993,61.405,-454.263,0,0
326295,60.254,-450.952,0,0
327596,59.2372,-447.525,0,0
328898,58.321,-444.134,0,0
330200,57.4923,-440.752,0,0
331501.125,56.6555,-437.441,0,0
332802.75,55.9148,-433.975,0,0
334104.375,55.2988,-430.596,0,0
335406.0,54.8413,-427.242,0,0
336707.625,54.4904,-424.046,0,0
338009.25,54.1238,-420.947,0,0
339310.875,53.777,-417.812,0,0
340612.5,53.5275,-414.692,0,0
341914.125,53.3697,-411.637,0,0
343215.75,53.5502,-408.766,0,0
344517.375,53.585,-406.539,0,0
345819.0,52.878,-404.173,0,0
347121,52.2272,-401.336,0,0
348422,51.813,-398.399,0,0
349724,51.5431,-395.518,0,0
351025,51.4501,-392.636,0,0
352327,51.4482,-389.862,0,0
353629,51.5455,-387.315,0,0
354930,51.4754,-384.904,0,0
356232,51.2761,-382.423,0,0
357534,51.2588,-379.848,0,0
358835,51.389,-377.41,0,0
360137,51.5057,-375.228,0,0
361438,51.3864,-373.213,0,0
362740.1,51.0582,-371.041,0,0
364041.725,50.7155,-368.808,0,0
365343.35,50.3631,-366.432,0,0
366644.975,50.1985,-364.006,0,0
367946.6,49.9977,-361.607,0,0
369248.225,49.9136,-359.221,0,0
370549.85,49.871,-356.802,0,0
371851.475,50.0157,-354.442,0,0
373153.1,50.326,-352.313,0,0
374454.725,50.426,-350.666,0,0
375756.35,49.979,-348.994,0,0
377057.975,49.4738,-346.993,0,0
378359.6,48.9371,-344.891,0,0
379661,48.2753,-342.664,0,0
380963,47.6206,-340.08,0,0
382264,47.2814,-337.194,0,0
383566,47.6083,-334.565,0,0
384868,47.61,-332.603,0,0
386169,47.2514,-330.421,0,0
387471,46.8756,-327.959,0,0
388773,46.5708,-325.383,0,0
390074,46.413,-322.748,0,0
391376,46.3184,-320.101,0,0
392677,46.2774,-317.478,0,0
393979,46.3078,-314.815,0,0
395280.7,46.3715,-312.146,0,0
396582.325,46.5006,-309.415,0,0
397883.95,46.6779,-306.71,0,0
399185.575,46.9577,-304.012,0,0
400006.6,47.1503,-302.292,0,0

File: sample_7.csv
Frequency (Hz),Impedance (ohms),Phase (Radians),Temperature (C),Humidity (%)
10000.0,278.305,-12001.1,0,0
11301.625,250.216,-10617.3,0,0
12603.25,264.552,-9578.95,0,0
13904.875,211.525,-8687.15,0,0
15206.5,201.165,-7952.5,0,0
16508.125,174.891,-7318.53,0,0
17809.75,172.196,-6768.13,0,0
19111.375,183.429,-6334.3,0,0
20413.0,173.596,-5936.69,0,0
21714.625,157.295,-5596.6,0,0
23016.25,133.668,-5278.39,0,0
24317.875,125.398,-4988.14,0,0
25619.5,121.535,-4726.21,0,0
26921.1,125.22,-4483.44,0,0
28222.7,181.805,-4280.91,0,0
29524.4,136.554,-4137.26,0,0
30826,137.039,-3956.8,0,0
32127.6,119.909,-3812.78,0,0
33429.2,104.186,-3662.92,0,0
34730.9,94.9988,-3519.69,0,0
36032.5,90.9343,-3387.05,0,0
37334.1,88.3827,-3264.71,0,0
38635.7,88.5373,-3148.71,0,0
39937.4,98.8049,-3049.16,0,0
41239,88.7225,-2961.7,0,0
42540.6,81.9542,-2866.48,0,0
43842.225,81.6384,-2778.53,0,0
45143.85,82.0298,-2701.88,0,0
46445.475,79.3708,-2629.27,0,0
47747.1,72.9875,-2553.65,0,0
49048.725,70.2638,-2484.04,0,0
50350.35,68.3099,-2417.47,0,0
51651.975,66.6134,-2354.35,0,0
52953.6,65.7584,-2294.19,0,0
54255.225,64.3433,-2237.81,0,0
55556.85,63.2697,-2183.33,0,0
56858.475,62.5136,-2131.5,0,0
58160.1,61.8403,-2081.31,0,0
59461.7,61.886,-2034.54,0,0
60763.3,61.3446,-1990.92,0,0
62065,59.4277,-1947.72,0,0
63366.6,58.3484,-1905.6,0,0
64668.2,57.3385,-1865.18,0,0
65969.8,57.465,-1827.03,0,0
67271.5,55.6905,-1790.53,0,0
68573.1,54.4728,-1753.9,0,0
69874.7,54.0213,-1718.85,0,0
71176.3,53.6661,-1685.77,0,0
72478,52.6619,-1653.59,0,0
73779.6,51.7586,-1621.88,0,0
75081.2,51.3383,-1591.29,0,0
76382.825,50.82,-1561.78,0,0
77684.45,50.4739,-1533.04,0,0
78986.075,50.2115,-1505.24,0,0
80287.7,50.0769,-1478.33,0,0
81589.325,49.7491,-1452.26,0,0
82890.95,49.644,-1426.83,0,0
84192.575,49.6016,-1401.95,0,0
85494.2,49.9202,-1378.04,0,0
86795.825,49.8339,-1354.82,0,0
88097.45,50.1241,-1332.1,0,0
89399.075,49.9563,-1310.1,0,0
90700.7,50.3272,-1288.16,0,0
92002.3,50.5901,-1267.13,0,0
93303.9,50.6739,-1246.2,0,0
94605.6,53.3334,-1226.43,0,0
95907.2,52.3816,-1208.77,0,0
97208.8,52.0012,-1188.99,0,0
98510.4,52.9469,-1169.73,0,0
99812.1,52.6785,-1151.4,0,0
101114,53.8524,-1132.49,0,0
102415,55.3995,-1114.74,0,0
103717,58.2615,-1097.98,0,0
105019,59.4262,-1082.94,0,0
106320.175,58.8711,-1067.2,0,0
107621.8,60.2121,-1050.74,0,0
108923.425,61.067,-1035.52,0,0
110225.05,61.2989,-1018.98,0,0
111526.675,64.29,-1002.03,0,0
112828.3,68.3414,-986.084,0,0
114129.925,73.4552,-973.063,0,0
115431.55,78.2845,-960.741,0,0
116733.175,85.3026,-951.117,0,0
118034.8,87.9401,-946.156,0,0
119336.425,89.9212,-940.898,0,0
120638.05,84.4893,-939.321,0,0
121939.675,74.9396,-928.904,0,0
123241,68.7198,-915.666,0,0
124543,64.7261,-900.925,0,0
125845,61.3734,-887.716,0,0
127146,58.5026,-873.118,0,0
128448,56.7747,-858.31,0,0
129749,55.672,-843.777,0,0
131051,55.0548,-829.246,0,0
132353,54.4313,-814.209,0,0
133654,55.2935,-798.748,0,0
134956,58.2578,-783.859,0,0
136258,63.1475,-771.896,0,0
137559,64.016,-763.18,0,0
138860.775,62.6836,-751.973,0,0
140162.4,62.5467,-738.59,0,0
141464.025,63.0297,-725.717,0,0
142765.65,63.6753,-711.975,0,0
144067.275,65.8473,-698.374,0,0
145368.9,67.7361,-685.867,0,0
146670.525,68.9084,-672.446,0,0
147972.15,70.8572,-658.927,0,0
149273.775,72.5532,-645.626,0,0
150575.4,73.8622,-630.226,0,0
151877.025,76.6417,-613.267,0,0
153178.65,82.0257,-595.565,0,0
154480,89.3132,-578.2,0,0
155782,99.179,-561.741,0,0
157084,110.672,-547.595,0,0
158385,121.818,-536.333,0,0
159687,129.037,-526.501,0,0
160988,133.105,-508.944,0,0
162290,145.039,-484.876,0,0
163592,165.391,-461.699,0,0
164893,194.401,-443.078,0,0
166195,226.275,-426.663,0,0
167497,275.254,-418.263,0,0
168798,327.399,-432.318,0,0
170100,368.013,-465.629,0,0
171401.375,397.701,-515.771,0,0
172703.0,400.43,-570.321,0,0
174004.625,373.425,-614.688,0,0
175306.25,337.196,-631.073,0,0
176607.875,319.891,-620.638,0,0
177909.5,326.587,-628.541,0,0
179211.125,319.56,-663.646,0,0
180512.75,282.513,-679.685,0,0
181814.375,246.997,-685.796,0,0
183116.0,208.878,-672.655,0,0
184417.625,183.323,-648.803,0,0
185719.25,170.2,-626.231,0,0
187021,157.171,-601.32,0,0
188322,155.043,-576.275,0,0
189624,150.356,-560.753,0,0
190926,144.994,-537.566,0,0
192227,146.073,-512.234,0,0
193529,150.471,-488.025,0,0
194831,159.022,-464.261,0,0
196132,171.239,-443.159,0,0
197434,185.235,-424.619,0,0
198735,199.753,-406.217,0,0
200037,216.66,-387.858,0,0
201339,238.807,-369.815,0,0
202640.35,266.44,-353.168,0,0
203941.975,299.837,-343.608,0,0
205243.6,334.718,-342.452,0,0
206545.225,369.447,-351.057,0,0
207846.85,392.045,-362.758,0,0
209148.475,422.588,-359.742,0,0
210450.1,473.812,-383.789,0,0
211751.725,503.227,-435.887,0,0
213053.35,505.911,-481.564,0,0
214354.975,497.886,-523.414,0,0
215656.6,477.786,-550.528,0,0
216958.225,464.286,-572.49,0,0
218259.85,440.483,-591.895,0,0
219561,412.884,-599.021,0,0
220863,390.639,-589.042,0,0
222165,382.958,-574.723,0,0
223466,386.193,-564.467,0,0
224768,393.265,-558.239,0,0
226070,407.99,-555.061,0,0
227371,426.577,-566.101,0,0
228673,442.247,-584.609,0,0
229974,448.96,-616.522,0,0
231276,442.292,-651.328,0,0
232578,423.829,-680.01,0,0
233879,396.09,-709.008,0,0
235180.95,349.427,-720.604,0,0
236482.575,313.497,-706.836,0,0
237784.2,291.954,-694.541,0,0
239085.825,271.025,-674.833,0,0
240387.45,267.913,-655.015,0,0
241689.075,264.579,-649.691,0,0
242990.7,252.78,-641.409,0,0
244292.325,247.335,-623.414,0,0
245593.95,254.26,-609.241,0,0
246895.575,259.634,-605.871,0,0
248197.2,261.618,-603.396,0,0
249498.825,264.039,-601.52,0,0
250800,265.847,-602.207,0,0
252102,266.71,-603.189,0,0
253404,265.615,-607.099,0,0
254705,260.734,-612.036,0,0
256007,251.175,-613.586,0,0
257309,241.573,-609.631,0,0
258610,233.712,-601.775,0,0
259912,230.256,-592.27,0,0
261213,229.527,-580.882,0,0
262515,236.938,-568.911,0,0
263817,251.353,-566.248,0,0
265118,260.73,-574.089,0,0
266420,263.902,-581.619,0,0
267721.55,265.579,-590.079,0,0
269023.175,262.874,-598.202,0,0
270324.8,262.198,-603.195,0,0
271626.425,263.664,-613.152,0,0
272928.05,262.478,-634.248,0,0
274229.675,240.386,-657.881,0,0
275531.3,205.681,-664.484,0,0
276832.925,173.499,-653.963,0,0
278134.55,151.321,-632.748,0,0
279436.175,142.091,-609.759,0,0
280737.8,140.198,-591.2,0,0
282039.425,140.617,-578.778,0,0
283341,138.291,-567.587,0,0
284643,137.615,-553.59,0,0
285944,141.687,-541.178,0,0
287246,146.097,-532.411,0,0
288548,149.151,-524.145,0,0
289849,154.093,-514.673,0,0
291151,161.459,-507.099,0,0
292452,169.081,-501.874,0,0
293754,176.455,-497.931,0,0
295056,184.121,-493.779,0,0
296357,194.384,-489.936,0,0
297659,207.383,-489.309,0,0
298960.525,221.322,-492.977,0,0
300262.15,235.56,-501.01,0,0
301563.775,249.875,-515.746,0,0
302865.4,258.294,-541.591,0,0
304167.025,249.265,-568.74,0,0
305468.65,232.383,-587.108,0,0
306770.275,211.748,-597.635,0,0
308071.9,191.411,-600.119,0,0
309373.525,173.793,-597.422,0,0
310675.15,160.011,-591.571,0,0
311976.775,149.534,-584.994,0,0
313278.4,140.862,-578.921,0,0
314580,132.744,-572.18,0,0
315882,126.731,-564.277,0,0
317183,122.765,-557.003,0,0
318485,119.806,-550.897,0,0
319787,117.671,-544.945,0,0
321088,116.493,-540.802,0,0
322390,114.347,-537.709,0,0
323691,111.415,-534.725,0,0
324993,108.238,-531.148,0,0
326295,105.593,-527.339,0,0
327596,103.067,-524.087,0,0
328898,100.074,-521.053,0,0
330200,97.0663,-517.511,0,0
331501.125,94.1186,-514.176,0,0
332802.75,90.3799,-511.171,0,0
334104.375,85.9304,-506.924,0,0
335406.0,81.975,-501.564,0,0
336707.625,78.7301,-495.699,0,0
338009.25,76.2883,-489.42,0,0
339310.875,74.6558,-483.18,0,0
340612.5,73.5492,-477.098,0,0
341914.125,72.9646,-470.938,0,0
343215.75,73.1372,-465.109,0,0
344517.375,73.9754,-459.693,0,0
345819.0,75.1769,-455.299,0,0
347121,76.0229,-451.82,0,0
348422,75.957,-448.595,0,0
349724,75.3245,-444.724,0,0
351025,74.8974,-440.227,0,0
352327,75.291,-435.172,0,0
353629,76.9186,-430.469,0,0
354930,79.0203,-427.037,0,0
356232,80.6324,-424.923,0,0
357534,80.6107,-423.313,0,0
358835,79.3096,-420.441,0,0
360137,78.4507,-415.71,0,0
361438,79.2362,-410.561,0,0
362740.1,81.0457,-406.014,0,0
364041.725,83.1745,-402.101,0,0
365343.35,85.8563,-398.739,0,0
366644.975,88.5633,-396.511,0,0
367946.6,90.692,-394.628,0,0
369248.225,92.8789,-393.449,0,0
370549.85,93.6746,-393.46,0,0
371851.475,92.1633,-392.123,0,0
373153.1,91.2077,-388.316,0,0
374454.725,91.883,-384.13,0,0
375756.35,93.3159,-380.316,0,0
377057.975,95.1242,-376.796,0,0
378359.6,96.9971,-373.192,0,0
379661,99.8014,-369.464,0,0
380963,103.18,-366.684,0,0
382264,106.571,-364.304,0,0
383566,110.291,-362.531,0,0
384868,113.692,-361.431,0,0
386169,116.533,-360.676,0,0
387471,119.369,-359.386,0,0
388773,122.257,-358.13,0,0
390074,125.899,-356.8,0,0
391376,130.033,-356.062,0,0
392677,134.236,-355.754,0,0
393979,139.093,-355.938,0,0
395280.7,144.47,-357.102,0,0
396582.325,150.072,-359.993,0,0
397883.95,155.543,-364.764,0,0
399185.575,159.165,-372.066,0,0
400006.6,159.842,-377.432,0,0