Folder: ML_Dmg_Mehdi_Dataset/Accelerated corrosion test data/2025-10-06_06-00-03 (part 3)

File: sample_6.csv
Frequency (Hz),Impedance (ohms),Phase (Radians),Temperature (C),Humidity (%)
10000.0,4255.04,-6507.94,0,0
11301.625,3625.96,-6138.9,0,0
12603.25,3124.17,-5782.8,0,0
13904.875,2717.28,-5455.92,0,0
15206.5,2383.71,-5148.78,0,0
16508.125,2108.37,-4868.08,0,0
17809.75,1877.89,-4611.43,0,0
19111.375,1687.02,-4374.32,0,0
20413.0,1520.39,-4160.49,0,0
21714.625,1378.35,-3961.68,0,0
23016.25,1261.26,-3773.95,0,0
24317.875,1154.65,-3615.01,0,0
25619.5,1060.81,-3460.29,0,0
26921.1,978.713,-3315.38,0,0
28222.7,908.773,-3183.45,0,0
29524.4,843.908,-3057.58,0,0
30826,789.613,-2943.25,0,0
32127.6,739.954,-2832.83,0,0
33429.2,702.043,-2732.87,0,0
34730.9,661.719,-2646.3,0,0
36032.5,624.204,-2563.95,0,0
37334.1,586.299,-2482.59,0,0
38635.7,552.572,-2402.63,0,0
39937.4,525.19,-2326.48,0,0
41239,500.205,-2256.79,0,0
42540.6,477.344,-2191.75,0,0
43842.225,457.008,-2124.81,0,0
45143.85,441.427,-2062.81,0,0
46445.475,431.595,-2008.31,0,0
47747.1,420.539,-1960.01,0,0
49048.725,409.621,-1919.86,0,0
50350.35,389.026,-1884.3,0,0
51651.975,365.605,-1839.66,0,0
52953.6,349.019,-1794.74,0,0
54255.225,331.523,-1753,0,0
55556.85,315.412,-1710.84,0,0
56858.475,303.089,-1664.55,0,0
58160.1,298.379,-1626.26,0,0
59461.7,288.863,-1593.68,0,0
60763.3,276.351,-1560.32,0,0
62065,263.662,-1524.41,0,0
63366.6,259.837,-1486.31,0,0
64668.2,253.804,-1461.16,0,0
65969.8,244.763,-1431.07,0,0
67271.5,233.65,-1402.33,0,0
68573.1,224.447,-1369.2,0,0
69874.7,218.144,-1336.64,0,0
71176.3,215.604,-1304.98,0,0
72478,215.398,-1276.48,0,0
73779.6,215.797,-1251.99,0,0
75081.2,214.371,-1228.92,0,0
76382.825,213.188,-1207.14,0,0
77684.45,211.768,-1186.35,0,0
78986.075,209.758,-1167.22,0,0
80287.7,206.751,-1148.74,0,0
81589.325,202.807,-1130.4,0,0
82890.95,198.316,-1111.6,0,0
84192.575,193.673,-1091.91,0,0
85494.2,190.84,-1071.01,0,0
86795.825,189.715,-1051.87,0,0
88097.45,188.141,-1033.9,0,0
89399.075,187.485,-1015.41,0,0
90700.7,188.245,-999.396,0,0
92002.3,186.451,-984.898,0,0
93303.9,185.108,-968.912,0,0
94605.6,184.759,-951.614,0,0
95907.2,187.116,-937.941,0,0
97208.8,186.965,-927.221,0,0
98510.4,185.714,-912.461,0,0
99812.1,190.466,-902.32,0,0
101114,187.744,-896.959,0,0
102415,182.678,-887.572,0,0
103717,176.368,-880.354,0,0
105019,164.239,-869.618,0,0
106320.175,152.65,-849.46,0,0
107621.8,150.196,-826.23,0,0
108923.425,152.856,-807.245,0,0
110225.05,155.199,-791.127,0,0
111526.675,158.843,-775.187,0,0
112828.3,163.225,-762.247,0,0
114129.925,168.289,-750.936,0,0
115431.55,172.478,-741.604,0,0
116733.175,177.674,-734.647,0,0
118034.8,176.406,-730.618,0,0
119336.425,173.81,-720.047,0,0
120638.05,178.39,-708.407,0,0
121939.675,179.771,-708.381,0,0
123241,174.77,-701.259,0,0
124543,171.802,-693.021,0,0
125845,168.541,-683.998,0,0
127146,165.119,-673.905,0,0
128448,164.081,-661.683,0,0
129749,166.171,-652.428,0,0
131051,166.086,-645.932,0,0
132353,164.117,-639.369,0,0
133654,160.354,-632.283,0,0
134956,155.205,-623.122,0,0
136258,150.466,-611.59,0,0
137559,147.337,-598.749,0,0
138860.775,145.688,-585.253,0,0
140162.4,145.327,-571.588,0,0
141464.025,146.795,-558.035,0,0
142765.65,148.712,-546.184,0,0
144067.275,150.993,-533.662,0,0
145368.9,155.615,-522.985,0,0
146670.525,157.694,-515.008,0,0
147972.15,157.823,-505.772,0,0
149273.775,157.546,-494.237,0,0
150575.4,158.155,-480.41,0,0
151877.025,161.757,-464.148,0,0
153178.65,172.621,-451.056,0,0
154480,179.997,-444.969,0,0
155782,184.669,-434.941,0,0
157084,195.009,-427.433,0,0
158385,200.049,-425.582,0,0
159687,201.264,-421.038,0,0
160988,202.384,-414.14,0,0
162290,203.362,-407.321,0,0
163592,203.561,-398.329,0,0
164893,203.262,-388.174,0,0
166195,205.059,-374.866,0,0
167497,208.817,-362.675,0,0
168798,212.978,-350.097,0,0
170100,218.295,-337.945,0,0
171401.375,223.144,-325.47,0,0
172703.0,228.517,-312.271,0,0
174004.625,234.058,-298.572,0,0
175306.25,239.295,-282.652,0,0
176607.875,246.762,-264.001,0,0
177909.5,257.586,-243.34,0,0
179211.125,272.937,-221.181,0,0
180512.75,294.766,-201.22,0,0
181814.375,319.31,-185.709,0,0
183116.0,344.912,-174.51,0,0
184417.625,369.624,-165.318,0,0
185719.25,392.637,-159.498,0,0
187021,410.862,-152.524,0,0
188322,426.272,-135.84,0,0
189624,451.266,-108.34,0,0
190926,494.909,-76.0372,0,0
192227,558.436,-54.8656,0,0
193529,630.164,-48.2377,0,0
194831,713.219,-57.2144,0,0
196132,797.54,-91.8842,0,0
197434,873.8,-145.886,0,0
198735,938.425,-214.389,0,0
200037,993.629,-298.681,0,0
201339,1034.43,-397.766,0,0
202640.35,1050.16,-517.191,0,0
203941.975,1022.45,-633.52,0,0
205243.6,970.729,-727.53,0,0
206545.225,904.874,-800.202,0,0
207846.85,834.83,-848.854,0,0
209148.475,770.259,-879.995,0,0
210450.1,714.435,-903.7,0,0
211751.725,658.025,-930.029,0,0
213053.35,589.836,-944.763,0,0
214354.975,526.103,-941.004,0,0
215656.6,471.844,-926.988,0,0
216958.225,427.646,-908.554,0,0
218259.85,390.461,-888.706,0,0
219561,358.768,-867.661,0,0
220863,331.799,-846.025,0,0
222165,308.619,-823.685,0,0
223466,289.571,-800.13,0,0
224768,276.294,-775.821,0,0
226070,269.364,-752.616,0,0
227371,268.814,-735.087,0,0
228673,268.33,-726.355,0,0
229974,261.885,-721.345,0,0
231276,251.162,-714.047,0,0
232578,240.068,-702.784,0,0
233879,230.86,-689.011,0,0
235180.95,224.851,-674.316,0,0
236482.575,221.106,-659.914,0,0
237784.2,219.281,-646.255,0,0
239085.825,218.88,-633.373,0,0
240387.45,220.016,-621.474,0,0
241689.075,222.02,-610.27,0,0
242990.7,225.345,-599.732,0,0
244292.325,229.952,-590.022,0,0
245593.95,236.071,-580.925,0,0
246895.575,244.342,-572.623,0,0
248197.2,255.962,-566.904,0,0
249498.825,268.248,-566.283,0,0
250800,278.679,-567.628,0,0
252102,292.071,-570.212,0,0
253404,307.555,-580.784,0,0
254705,317.857,-600.422,0,0
256007,318.436,-623.993,0,0
257309,309.656,-645.645,0,0
258610,294.976,-662.41,0,0
259912,277.21,-673.903,0,0
261213,258.054,-680.408,0,0
262515,239.462,-682.021,0,0
263817,222.889,-680.552,0,0
265118,207.913,-677.324,0,0
266420,194.331,-672.578,0,0
267721.55,182.264,-666.985,0,0
269023.175,171.595,-660.893,0,0
270324.8,161.845,-654.447,0,0
271626.425,152.91,-647.627,0,0
272928.05,144.806,-640.646,0,0
274229.675,137.43,-633.319,0,0
275531.3,130.734,-625.904,0,0
276832.925,124.862,-618.321,0,0
278134.55,119.705,-610.74,0,0
279436.175,115.223,-603.023,0,0
280737.8,111.812,-595.248,0,0
282039.425,109.396,-588.482,0,0
283341,106.741,-582.348,0,0
284643,104.328,-576.093,0,0
285944,102.639,-570.185,0,0
287246,101.066,-565.303,0,0
288548,98.8864,-560.445,0,0
289849,97.039,-555.464,0,0
291151,95.3886,-550.768,0,0
292452,93.8976,-546.505,0,0
293754,92.2539,-542.696,0,0
295056,89.865,-539.069,0,0
296357,86.9064,-534.964,0,0
297659,84.0028,-529.768,0,0
298960.525,82.3541,-523.817,0,0
300262.15,81.983,-518.717,0,0
301563.775,81.4674,-514.535,0,0
302865.4,80.6907,-510.814,0,0
304167.025,79.6652,-506.942,0,0
305468.65,78.9889,-502.768,0,0
306770.275,78.9695,-499.195,0,0
308071.9,78.5492,-496.674,0,0
309373.525,77.4078,-494.034,0,0
310675.15,76.1981,-491.298,0,0
311976.775,74.6783,-488.549,0,0
313278.4,73.0631,-485.639,0,0
314580,71.4515,-482.424,0,0
315882,69.8948,-479.124,0,0
317183,68.5195,-475.878,0,0
318485,67.0279,-472.721,0,0
319787,65.5758,-469.424,0,0
321088,64.1459,-466.031,0,0
322390,62.8864,-462.421,0,0
323691,61.9223,-458.917,0,0
324993,60.857,-455.624,0,0
326295,59.8191,-452.306,0,0
327596,58.7819,-448.893,0,0
328898,57.844,-445.491,0,0
330200,56.9696,-442.128,0,0
331501.125,56.1834,-438.783,0,0
332802.75,55.4505,-435.334,0,0
334104.375,54.8361,-431.909,0,0
335406.0,54.4318,-428.502,0,0
336707.625,54.0769,-425.376,0,0
338009.25,53.7247,-422.207,0,0
339310.875,53.3826,-419.106,0,0
340612.5,53.0643,-415.988,0,0
341914.125,52.9419,-412.863,0,0
343215.75,53.1633,-409.957,0,0
344517.375,53.2217,-407.746,0,0
345819.0,52.5654,-405.407,0,0
347121,51.8489,-402.643,0,0
348422,51.396,-399.684,0,0
349724,51.1349,-396.768,0,0
351025,51.0291,-393.858,0,0
352327,50.9493,-391.068,0,0
353629,51.0319,-388.424,0,0
354930,51.0301,-385.987,0,0
356232,50.8462,-383.479,0,0
357534,50.7652,-380.842,0,0
358835,50.9064,-378.353,0,0
360137,51.0055,-376.147,0,0
361438,50.974,-374.018,0,0
362740.1,50.6901,-371.937,0,0
364041.725,50.3248,-369.614,0,0
365343.35,50.0248,-367.212,0,0
366644.975,49.7981,-364.775,0,0
367946.6,49.7169,-362.353,0,0
369248.225,49.6215,-359.936,0,0
370549.85,49.6224,-357.464,0,0
371851.475,49.7961,-355.085,0,0
373153.1,50.1266,-352.981,0,0
374454.725,50.3471,-351.312,0,0
375756.35,49.9016,-349.654,0,0
377057.975,49.337,-347.7,0,0
378359.6,48.7484,-345.538,0,0
379661,48.1517,-343.229,0,0
380963,47.5587,-340.714,0,0
382264,47.2421,-337.842,0,0
383566,47.568,-335.208,0,0
384868,47.6155,-333.196,0,0
386169,47.2041,-330.948,0,0
387471,46.8681,-328.539,0,0
388773,46.5896,-325.966,0,0
390074,46.4225,-323.336,0,0
391376,46.3515,-320.698,0,0
392677,46.3851,-318.051,0,0
393979,46.3761,-315.38,0,0
395280.7,46.4547,-312.722,0,0
396582.325,46.5737,-310.031,0,0
397883.95,46.7683,-307.325,0,0
399185.575,47.0256,-304.62,0,0
400006.6,47.1748,-302.935,0,0

File: sample_7.csv
Frequency (Hz),Impedance (ohms),Phase (Radians),Temperature (C),Humidity (%)
10000.0,274.626,-12054.3,0,0
11301.625,247.478,-10663.3,0,0
12603.25,261.495,-9622.57,0,0
13904.875,209.281,-8726.18,0,0
15206.5,198.863,-7986.97,0,0
16508.125,172.72,-7350.47,0,0
17809.75,168.966,-6796.16,0,0
19111.375,185.8,-6363.95,0,0
20413.0,168.637,-5958.77,0,0
21714.625,154.407,-5618.81,0,0
23016.25,131.731,-5301.33,0,0
24317.875,123.83,-5009.55,0,0
25619.5,119.821,-4746.29,0,0
26921.1,124.45,-4502.54,0,0
28222.7,180.868,-4297.6,0,0
29524.4,136.185,-4155.95,0,0
30826,135.988,-3975.69,0,0
32127.6,118.457,-3829.73,0,0
33429.2,102.723,-3678.45,0,0
34730.9,93.5425,-3534.42,0,0
36032.5,89.5521,-3401.47,0,0
37334.1,86.9972,-3277.9,0,0
38635.7,87.3305,-3161.69,0,0
39937.4,98.4164,-3061.21,0,0
41239,87.7049,-2974.21,0,0
42540.6,81.0294,-2878.67,0,0
43842.225,80.742,-2790.51,0,0
45143.85,81.2732,-2713.15,0,0
46445.475,78.7751,-2639.47,0,0
47747.1,71.8468,-2564.69,0,0
49048.725,69.1961,-2494.58,0,0
50350.35,67.1165,-2427.61,0,0
51651.975,65.6368,-2364.23,0,0
52953.6,64.7527,-2303.93,0,0
54255.225,63.4966,-2247.31,0,0
55556.85,62.3049,-2192.58,0,0
56858.475,61.5035,-2140.48,0,0
58160.1,60.7548,-2090.31,0,0
59461.7,60.8712,-2042.99,0,0
60763.3,60.466,-1999.28,0,0
62065,58.3849,-1956.06,0,0
63366.6,57.3033,-1913.55,0,0
64668.2,56.3643,-1873.07,0,0
65969.8,56.4423,-1834.67,0,0
67271.5,54.6019,-1797.95,0,0
68573.1,53.4232,-1761.25,0,0
69874.7,52.9707,-1726.02,0,0
71176.3,52.797,-1692.75,0,0
72478,51.6426,-1660.46,0,0
73779.6,50.8538,-1628.72,0,0
75081.2,50.3636,-1597.99,0,0
76382.825,49.8506,-1568.32,0,0
77684.45,49.5477,-1539.53,0,0
78986.075,49.2574,-1511.6,0,0
80287.7,49.1069,-1484.67,0,0
81589.325,48.8001,-1458.48,0,0
82890.95,48.7605,-1432.83,0,0
84192.575,48.6517,-1407.86,0,0
85494.2,48.9324,-1383.92,0,0
86795.825,48.869,-1360.55,0,0
88097.45,49.1332,-1337.65,0,0
89399.075,48.9553,-1315.48,0,0
90700.7,49.2428,-1293.45,0,0
92002.3,49.713,-1272.32,0,0
93303.9,49.9949,-1251.18,0,0
94605.6,52.7451,-1231.67,0,0
95907.2,51.4988,-1213.9,0,0
97208.8,51.2121,-1193.97,0,0
98510.4,52.0307,-1174.63,0,0
99812.1,51.6676,-1156.37,0,0
101114,53.1292,-1137.27,0,0
102415,54.6797,-1119.16,0,0
103717,57.2427,-1102.28,0,0
105019,58.6605,-1087.56,0,0
106320.175,58.2496,-1071.7,0,0
107621.8,59.2855,-1055.21,0,0
108923.425,60.3098,-1039.6,0,0
110225.05,60.6062,-1023.2,0,0
111526.675,63.5171,-1006.23,0,0
112828.3,67.3588,-990.319,0,0
114129.925,72.4369,-976.374,0,0
115431.55,77.8252,-963.676,0,0
116733.175,85.5822,-954.184,0,0
118034.8,88.6543,-948.82,0,0
119336.425,91.4154,-945.378,0,0
120638.05,85.5723,-943.803,0,0
121939.675,75.4782,-933.351,0,0
123241,69.6057,-920.478,0,0
124543,65.0742,-906.378,0,0
125845,61.3583,-892.93,0,0
127146,58.1958,-878.232,0,0
128448,56.5637,-863.076,0,0
129749,55.5395,-848.771,0,0
131051,54.4219,-834.139,0,0
132353,53.6595,-819.173,0,0
133654,54.3728,-803.526,0,0
134956,57.7825,-788.636,0,0
136258,62.3003,-775.975,0,0
137559,63.1313,-768.205,0,0
138860.775,61.4975,-756.475,0,0
140162.4,61.6078,-742.774,0,0
141464.025,62.007,-729.841,0,0
142765.65,63.0401,-715.926,0,0
144067.275,65.4622,-702.852,0,0
145368.9,66.8969,-690.429,0,0
146670.525,68.1449,-677.13,0,0
147972.15,69.7144,-664.035,0,0
149273.775,70.9614,-650.653,0,0
150575.4,71.8799,-635.169,0,0
151877.025,74.3413,-617.845,0,0
153178.65,79.4336,-599.918,0,0
154480,86.3697,-582.115,0,0
155782,96.1508,-564.908,0,0
157084,108.063,-549.97,0,0
158385,120.598,-538.386,0,0
159687,128.61,-529.488,0,0
160988,132.381,-513.829,0,0
162290,143.331,-489.815,0,0
163592,163.016,-466.919,0,0
164893,189.38,-448.828,0,0
166195,219.716,-430.825,0,0
167497,266.969,-419.797,0,0
168798,319.332,-429.675,0,0
170100,362.702,-459.799,0,0
171401.375,395.602,-507.206,0,0
172703.0,406.719,-562.407,0,0
174004.625,382.769,-614.78,0,0
175306.25,341.306,-632.962,0,0
176607.875,322.482,-622.041,0,0
177909.5,330.424,-625.919,0,0
179211.125,328.742,-664.337,0,0
180512.75,295.264,-684.203,0,0
181814.375,255.894,-696.48,0,0
183116.0,212.927,-686.019,0,0
184417.625,185.534,-660.871,0,0
185719.25,169.74,-638.561,0,0
187021,155.675,-611.987,0,0
188322,153.487,-587.543,0,0
189624,147.018,-572.22,0,0
190926,140.284,-548.442,0,0
192227,140.772,-523.028,0,0
193529,143.582,-498.353,0,0
194831,151.199,-473.834,0,0
196132,162.641,-452.658,0,0
197434,175.231,-433.194,0,0
198735,188.039,-414.701,0,0
200037,203.036,-394.603,0,0
201339,223.611,-374.51,0,0
202640.35,249.419,-355.478,0,0
203941.975,281.882,-341.659,0,0
205243.6,318.266,-335.64,0,0
206545.225,357.147,-342.029,0,0
207846.85,380.973,-353.07,0,0
209148.475,411.514,-350.642,0,0
210450.1,464.058,-367.433,0,0
211751.725,500.97,-416.213,0,0
213053.35,509.378,-465.206,0,0
214354.975,505.512,-508.672,0,0
215656.6,490.787,-538.964,0,0
216958.225,480.275,-567.432,0,0
218259.85,456.967,-593.165,0,0
219561,425.388,-606.564,0,0
220863,398.023,-600.686,0,0
222165,385.256,-586.719,0,0
223466,384.021,-575.552,0,0
224768,387.702,-567.595,0,0
226070,399.47,-560.193,0,0
227371,417.365,-567.321,0,0
228673,434.549,-582.964,0,0
229974,443.256,-611.993,0,0
231276,439.947,-645.438,0,0
232578,424.239,-674.366,0,0
233879,399.481,-704.514,0,0
235180.95,354.827,-718.2,0,0
236482.575,319.482,-709.783,0,0
237784.2,292.257,-699.323,0,0
239085.825,271.805,-677.352,0,0
240387.45,269.084,-658.921,0,0
241689.075,263.514,-655.118,0,0
242990.7,249.608,-645.241,0,0
244292.325,243.077,-626.112,0,0
245593.95,250.218,-611.732,0,0
246895.575,253.979,-607.564,0,0
248197.2,254.972,-602.691,0,0
249498.825,257.838,-597.907,0,0
250800,262.015,-596.574,0,0
252102,265.027,-597.447,0,0
253404,266.516,-601.385,0,0
254705,263.456,-607.524,0,0
256007,255.285,-610.334,0,0
257309,245.953,-608.752,0,0
258610,237.64,-602.408,0,0
259912,233.657,-594.513,0,0
261213,231.316,-584.383,0,0
262515,237.012,-572.865,0,0
263817,248.699,-570.275,0,0
265118,255.999,-575.439,0,0
266420,259.283,-579.876,0,0
267721.55,262.788,-586.357,0,0
269023.175,261.969,-594.028,0,0
270324.8,262.185,-598.884,0,0
271626.425,265.856,-608.078,0,0
272928.05,267.969,-630.296,0,0
274229.675,247.841,-657.426,0,0
275531.3,211.633,-668.169,0,0
276832.925,176.434,-658.951,0,0
278134.55,152.057,-637.203,0,0
279436.175,141.571,-613.681,0,0
280737.8,138.718,-594.102,0,0
282039.425,138.542,-581.022,0,0
283341,135.767,-568.404,0,0
284643,135.747,-553.008,0,0
285944,140.718,-540.364,0,0
287246,146.052,-531.788,0,0
288548,149.346,-524.299,0,0
289849,153.437,-515.235,0,0
291151,160.045,-506.744,0,0
292452,168.102,-500.872,0,0
293754,175.904,-496.321,0,0
295056,184.301,-492.153,0,0
296357,194.868,-488.684,0,0
297659,207.814,-488.319,0,0
298960.525,220.897,-492.358,0,0
300262.15,234.166,-498.541,0,0
301563.775,249.302,-511.164,0,0
302865.4,260.717,-535.417,0,0
304167.025,254.982,-563.957,0,0
305468.65,239.562,-584.626,0,0
306770.275,219.183,-597.732,0,0
308071.9,198.21,-602.215,0,0
309373.525,179.204,-600.997,0,0
310675.15,163.868,-595.574,0,0
311976.775,152.442,-588.889,0,0
313278.4,142.941,-582.636,0,0
314580,134.256,-575.49,0,0
315882,127.855,-567.067,0,0
317183,124.069,-559.463,0,0
318485,120.996,-553.384,0,0
319787,118.632,-547.296,0,0
321088,117.433,-542.783,0,0
322390,115.597,-539.458,0,0
323691,113.071,-536.612,0,0
324993,110.141,-533.27,0,0
326295,107.6,-529.717,0,0
327596,105.239,-526.932,0,0
328898,102.129,-524.248,0,0
330200,98.7515,-521.178,0,0
331501.125,95.6146,-518.24,0,0
332802.75,91.3668,-515.498,0,0
334104.375,86.4523,-511.472,0,0
335406.0,81.9627,-506.275,0,0
336707.625,78.0241,-500.378,0,0
338009.25,74.9868,-493.783,0,0
339310.875,73.0531,-487.225,0,0
340612.5,71.5712,-480.911,0,0
341914.125,70.6367,-474.408,0,0
343215.75,70.6436,-468.21,0,0
344517.375,71.29,-462.418,0,0
345819.0,72.3913,-457.493,0,0
347121,73.2979,-453.746,0,0
348422,73.2096,-450.26,0,0
349724,72.5995,-446.051,0,0
351025,72.2607,-441.406,0,0
352327,72.6726,-435.926,0,0
353629,74.4054,-431.08,0,0
354930,76.4122,-427.473,0,0
356232,78.1942,-424.835,0,0
357534,78.515,-422.846,0,0
358835,77.6165,-419.797,0,0
360137,77.2,-415.136,0,0
361438,78.1652,-410.179,0,0
362740.1,80.1112,-405.749,0,0
364041.725,82.3624,-402.082,0,0
365343.35,84.8628,-398.805,0,0
366644.975,87.4946,-396.434,0,0
367946.6,89.7056,-394.481,0,0
369248.225,91.9016,-393.19,0,0
370549.85,92.9081,-393.002,0,0
371851.475,91.7918,-391.816,0,0
373153.1,90.9542,-388.366,0,0
374454.725,91.5274,-384.497,0,0
375756.35,92.8019,-380.871,0,0
377057.975,94.3656,-377.559,0,0
378359.6,95.9239,-374.105,0,0
379661,98.387,-370.461,0,0
380963,101.236,-367.659,0,0
382264,103.958,-364.95,0,0
383566,107.27,-362.529,0,0
384868,110.415,-360.716,0,0
386169,113.383,-359.151,0,0
387471,116.397,-357.395,0,0
388773,119.483,-355.531,0,0
390074,123.75,-353.718,0,0
391376,128.093,-353.047,0,0
392677,132.242,-352.608,0,0
393979,136.793,-352.305,0,0
395280.7,142.023,-352.285,0,0
396582.325,148.398,-353.394,0,0
397883.95,155.821,-357.024,0,0
399185.575,161.763,-364.264,0,0
400006.6,163.884,-370.103,0,0