Folder: ML_Dmg_Mehdi_Dataset/Accelerated corrosion test data/2025-10-14_18-00-03 (part 4)

File: sample_8.csv
Frequency (Hz),Impedance (ohms),Phase (Radians),Temperature (C),Humidity (%)
10000.0,315.793,-10921.1,0,0
11301.625,279.594,-9678.83,0,0
12603.25,257.07,-8692.79,0,0
13904.875,228.246,-7894.59,0,0
15206.5,207.807,-7224.24,0,0
16508.125,191.47,-6660.64,0,0
17809.75,177.727,-6176.49,0,0
19111.375,169.738,-5755.96,0,0
20413.0,162.622,-5395.53,0,0
21714.625,151.769,-5077.2,0,0
23016.25,145.565,-4795.46,0,0
24317.875,134.129,-4540.06,0,0
25619.5,126.818,-4308.14,0,0
26921.1,121.858,-4098.28,0,0
28222.7,118.55,-3909.68,0,0
29524.4,114.959,-3737.64,0,0
30826,110.691,-3580.67,0,0
32127.6,106.663,-3433.18,0,0
33429.2,106.305,-3297.3,0,0
34730.9,106.791,-3172.89,0,0
36032.5,109.226,-3061.75,0,0
37334.1,106.765,-2962.36,0,0
38635.7,97.4911,-2866.32,0,0
39937.4,89.2037,-2770.56,0,0
41239,86.4118,-2680.26,0,0
42540.6,83.4397,-2595.82,0,0
43842.225,82.334,-2518.41,0,0
45143.85,78.6218,-2444.16,0,0
46445.475,75.6964,-2373.26,0,0
47747.1,73.9179,-2306.51,0,0
49048.725,71.8214,-2243.32,0,0
50350.35,69.8908,-2182.7,0,0
51651.975,68.9701,-2124.85,0,0
52953.6,68.4096,-2070.52,0,0
54255.225,67.3574,-2020.74,0,0
55556.85,64.1841,-1971.37,0,0
56858.475,62.0597,-1922.66,0,0
58160.1,61.1941,-1876.38,0,0
59461.7,60.5222,-1832.67,0,0
60763.3,59.0276,-1790.1,0,0
62065,58.7097,-1749.36,0,0
63366.6,58.9505,-1709.9,0,0
64668.2,59.7887,-1673.5,0,0
65969.8,58.8397,-1639.04,0,0
67271.5,56.6774,-1604.44,0,0
68573.1,55.8531,-1570.54,0,0
69874.7,55.7139,-1537.53,0,0
71176.3,55.5967,-1506.2,0,0
72478,55.7651,-1476.51,0,0
73779.6,55.0779,-1447.57,0,0
75081.2,54.257,-1419.17,0,0
76382.825,54.0363,-1391.34,0,0
77684.45,53.692,-1364.75,0,0
78986.075,53.09,-1338.48,0,0
80287.7,52.6689,-1312.46,0,0
81589.325,52.7376,-1286.78,0,0
82890.95,53.6973,-1261.9,0,0
84192.575,54.9277,-1238.17,0,0
85494.2,55.9232,-1216.61,0,0
86795.825,55.4693,-1193.6,0,0
88097.45,56.1893,-1171.17,0,0
89399.075,57.166,-1148.9,0,0
90700.7,59.1027,-1126.52,0,0
92002.3,63.4657,-1105.84,0,0
93303.9,67.3813,-1087.92,0,0
94605.6,67.2596,-1070.58,0,0
95907.2,69.0057,-1051,0,0
97208.8,72.8004,-1032.14,0,0
98510.4,77.5427,-1015.16,0,0
99812.1,81.9325,-1001.36,0,0
101114,85.2022,-988.492,0,0
102415,86.5359,-976.698,0,0
103717,85.4518,-964.513,0,0
105019,84.9592,-950.888,0,0
106320.175,84.5158,-936.589,0,0
107621.8,84.5982,-922.987,0,0
108923.425,83.9532,-908.884,0,0
110225.05,85.0479,-894.75,0,0
111526.675,85.5616,-881.959,0,0
112828.3,86.0584,-869.542,0,0
114129.925,85.8103,-857.661,0,0
115431.55,85.1558,-845.656,0,0
116733.175,83.2419,-833.004,0,0
118034.8,82.7198,-819.485,0,0
119336.425,82.0604,-806.737,0,0
120638.05,80.715,-793.467,0,0
121939.675,80.0097,-779.857,0,0
123241,79.6262,-766.107,0,0
124543,79.4371,-751.862,0,0
125845,80.0136,-737.893,0,0
127146,81.248,-724.001,0,0
128448,82.4169,-710.949,0,0
129749,83.375,-697.789,0,0
131051,84.4378,-684.136,0,0
132353,85.9112,-671.121,0,0
133654,86.8822,-657.998,0,0
134956,88.4295,-644.055,0,0
136258,91.3707,-631.008,0,0
137559,91.8185,-619.462,0,0
138860.775,91.2326,-604.178,0,0
140162.4,93.1486,-588.023,0,0
141464.025,96.0426,-571.943,0,0
142765.65,99.2963,-555.119,0,0
144067.275,104.197,-537.19,0,0
145368.9,111.518,-518.539,0,0
146670.525,121.468,-501.471,0,0
147972.15,131.713,-486.183,0,0
149273.775,144.045,-467.978,0,0
150575.4,162.686,-451.993,0,0
151877.025,187.116,-445.795,0,0
153178.65,201.056,-448.821,0,0
154480,208.093,-449.065,0,0
155782,219.689,-442.192,0,0
157084,224.058,-449.551,0,0
158385,222.732,-438.793,0,0
159687,235.883,-432.174,0,0
160988,235.063,-430.522,0,0
162290,243.223,-416.789,0,0
163592,256.194,-413.781,0,0
164893,264,-414.601,0,0
166195,263.875,-420.115,0,0
167497,253.408,-412.581,0,0
168798,249.515,-397.804,0,0
170100,251.286,-378.791,0,0
171401.375,253.863,-360.178,0,0
172703.0,265.523,-336.322,0,0
174004.625,281.691,-320.933,0,0
175306.25,288.118,-306.054,0,0
176607.875,301.654,-277.883,0,0
177909.5,324.433,-252.858,0,0
179211.125,356.191,-227.101,0,0
180512.75,400.308,-210.185,0,0
181814.375,445.236,-206.806,0,0
183116.0,486.892,-216.033,0,0
184417.625,514.359,-227.047,0,0
185719.25,542.416,-229.319,0,0
187021,578.803,-233.623,0,0
188322,616.432,-242.673,0,0
189624,650.363,-261.077,0,0
190926,685.479,-268.777,0,0
192227,732.275,-289.583,0,0
193529,781.143,-307.29,0,0
194831,850.309,-355.901,0,0
196132,904.09,-431.92,0,0
197434,924.711,-535.4,0,0
198735,908.509,-627.596,0,0
200037,876.889,-716.002,0,0
201339,819.387,-781.012,0,0
202640.35,745.506,-831.624,0,0
203941.975,677.776,-838.951,0,0
205243.6,623.575,-840.948,0,0
206545.225,571.932,-823,0,0
207846.85,554.465,-796.104,0,0
209148.475,545.905,-788.529,0,0
210450.1,538.376,-781.95,0,0
211751.725,535.68,-780.694,0,0
213053.35,536.039,-788.358,0,0
214354.975,530.497,-803.706,0,0
215656.6,516.779,-821.637,0,0
216958.225,495.364,-834.885,0,0
218259.85,472.44,-842.565,0,0
219561,450.508,-845.768,0,0
220863,428.488,-845.782,0,0
222165,411.617,-840.051,0,0
223466,400.12,-837.462,0,0
224768,390.746,-838.395,0,0
226070,380.196,-846.255,0,0
227371,360.724,-854.359,0,0
228673,337.744,-856.079,0,0
229974,316.75,-855.333,0,0
231276,293.094,-853.289,0,0
232578,268.802,-846.387,0,0
233879,245.595,-834.957,0,0
235180.95,225.034,-818.543,0,0
236482.575,210.571,-799.039,0,0
237784.2,201.645,-780.324,0,0
239085.825,197.372,-763.256,0,0
240387.45,195.659,-751.984,0,0
241689.075,191.049,-743.775,0,0
242990.7,183.518,-733.746,0,0
244292.325,178.419,-721.124,0,0
245593.95,175.415,-710.301,0,0
246895.575,173.294,-699.571,0,0
248197.2,170.538,-690.689,0,0
249498.825,167.205,-680.056,0,0
250800,166.048,-667.388,0,0
252102,169.802,-655.867,0,0
253404,174.47,-650.264,0,0
254705,174.724,-645.874,0,0
256007,174,-639.414,0,0
257309,174.171,-631.14,0,0
258610,177.269,-622.298,0,0
259912,183.077,-614.934,0,0
261213,189.766,-611.09,0,0
262515,195.49,-609.755,0,0
263817,198.405,-608.264,0,0
265118,201.923,-603.12,0,0
266420,211.802,-597.148,0,0
267721.55,229.504,-597.436,0,0
269023.175,247.243,-611.941,0,0
270324.8,254.829,-635.291,0,0
271626.425,250.124,-661.798,0,0
272928.05,232.964,-684.169,0,0
274229.675,206.914,-696.604,0,0
275531.3,180.811,-695.503,0,0
276832.925,161.619,-687.381,0,0
278134.55,147.548,-677.448,0,0
279436.175,136.67,-666.116,0,0
280737.8,131.177,-654.275,0,0
282039.425,129.223,-645.403,0,0
283341,127.485,-640.293,0,0
284643,123.769,-635.099,0,0
285944,122.378,-628.123,0,0
287246,124.907,-625.18,0,0
288548,123.695,-629.002,0,0
289849,115.454,-631.204,0,0
291151,105.969,-628.357,0,0
292452,97.6573,-623.704,0,0
293754,90.2852,-617.35,0,0
295056,83.8857,-609.855,0,0
296357,79.5344,-601.836,0,0
297659,75.8297,-594.414,0,0
298960.525,72.8256,-586.496,0,0
300262.15,71.0287,-578.394,0,0
301563.775,70.7962,-570.641,0,0
302865.4,71.7795,-564.204,0,0
304167.025,72.9669,-559.267,0,0
305468.65,73.9476,-555.223,0,0
306770.275,74.6857,-552.173,0,0
308071.9,74.99,-549.759,0,0
309373.525,74.1466,-548.357,0,0
310675.15,72.1249,-546.07,0,0
311976.775,70.1859,-543.364,0,0
313278.4,67.9991,-540.587,0,0
314580,65.4451,-537.256,0,0
315882,63.1901,-533.35,0,0
317183,61.5848,-529.044,0,0
318485,60.4957,-525.062,0,0
319787,59.7869,-521.442,0,0
321088,58.9651,-518.579,0,0
322390,57.5762,-515.86,0,0
323691,55.8108,-513.197,0,0
324993,53.4128,-510.132,0,0
326295,51.2127,-506.28,0,0
327596,49.3456,-502.159,0,0
328898,47.8718,-498.035,0,0
330200,46.5422,-493.821,0,0
331501.125,45.442,-489.718,0,0
332802.75,44.4825,-485.438,0,0
334104.375,43.8869,-481.05,0,0
335406.0,43.7905,-477.042,0,0
336707.625,43.7195,-473.445,0,0
338009.25,43.6067,-470.147,0,0
339310.875,43.206,-467.061,0,0
340612.5,42.5226,-463.972,0,0
341914.125,41.6814,-460.656,0,0
343215.75,40.9436,-456.959,0,0
344517.375,40.4196,-453.173,0,0
345819.0,40.0678,-449.252,0,0
347121,40.1165,-445.385,0,0
348422,40.5139,-441.637,0,0
349724,40.9898,-438.184,0,0
351025,41.6817,-434.829,0,0
352327,42.3608,-431.925,0,0
353629,42.981,-429.162,0,0
354930,43.4564,-426.56,0,0
356232,43.9428,-424.027,0,0
357534,44.2664,-421.61,0,0
358835,44.5229,-419.1,0,0
360137,44.8075,-416.675,0,0
361438,45.0837,-414.337,0,0
362740.1,45.315,-411.866,0,0
364041.725,45.5278,-409.446,0,0
365343.35,45.9832,-406.921,0,0
366644.975,46.4634,-404.651,0,0
367946.6,46.8131,-402.479,0,0
369248.225,47.2998,-400.116,0,0
370549.85,48.2657,-398.025,0,0
371851.475,49.0415,-396.674,0,0
373153.1,49.2831,-395.59,0,0
374454.725,48.9036,-394.382,0,0
375756.35,48.2808,-392.504,0,0
377057.975,48.3264,-390.373,0,0
378359.6,48.3862,-388.982,0,0
379661,47.5394,-387.223,0,0
380963,47.5631,-384.67,0,0
382264,48.0891,-383.457,0,0
383566,47.2022,-382.589,0,0
384868,45.7888,-380.917,0,0
386169,44.4284,-378.436,0,0
387471,43.4395,-375.537,0,0
388773,42.9609,-372.376,0,0
390074,43.0287,-369.405,0,0
391376,43.0653,-366.863,0,0
392677,43.0432,-364.433,0,0
393979,42.8469,-361.78,0,0
395280.7,42.8329,-358.951,0,0
396582.325,43.1265,-356.149,0,0
397883.95,43.5381,-353.547,0,0
399185.575,43.9155,-351.047,0,0
400006.6,44.0765,-349.478,0,0