Folder: ML_Dmg_Mehdi_Dataset/Accelerated corrosion test data/2025-10-01_12-27-23 (part 2)

File: sample_3.csv
Frequency (Hz),Impedance (ohms),Phase (Radians),Temperature (C),Humidity (%)
10000.0,254.186,-11752.2,0,0
11301.625,225.993,-10410.1,0,0
12603.25,204.886,-9343.08,0,0
13904.875,187.487,-8473.36,0,0
15206.5,174.771,-7746.55,0,0
16508.125,163.969,-7153.63,0,0
17809.75,158.481,-6624.91,0,0
19111.375,147.303,-6174.96,0,0
20413.0,157.472,-5774.57,0,0
21714.625,139.374,-5457.43,0,0
23016.25,129.255,-5152.19,0,0
24317.875,120.053,-4873.78,0,0
25619.5,114.685,-4627.37,0,0
26921.1,109.336,-4397.58,0,0
28222.7,104.41,-4192.52,0,0
29524.4,110.692,-4013.56,0,0
30826,101.946,-3843.05,0,0
32127.6,101.858,-3680.45,0,0
33429.2,100.274,-3554.19,0,0
34730.9,89.0028,-3418.01,0,0
36032.5,84.0194,-3290.64,0,0
37334.1,80.9726,-3173.23,0,0
38635.7,78.7666,-3063.88,0,0
39937.4,76.8259,-2961.61,0,0
41239,75.0692,-2864.89,0,0
42540.6,74.0115,-2775.6,0,0
43842.225,72.6273,-2690.12,0,0
45143.85,71.3253,-2610.84,0,0
46445.475,70.5797,-2535.08,0,0
47747.1,70.6877,-2462.91,0,0
49048.725,69.3515,-2397.83,0,0
50350.35,67.4477,-2332.66,0,0
51651.975,66.9342,-2270.24,0,0
52953.6,67.1426,-2210.65,0,0
54255.225,70.0276,-2156.08,0,0
55556.85,67.6188,-2108.94,0,0
56858.475,62.502,-2056.16,0,0
58160.1,61.7975,-2004.14,0,0
59461.7,62.4027,-1955.23,0,0
60763.3,63.7956,-1908.53,0,0
62065,65.9765,-1864.09,0,0
63366.6,69.5812,-1820.9,0,0
64668.2,77.9666,-1779.34,0,0
65969.8,92.3397,-1753.48,0,0
67271.5,77.2537,-1728.66,0,0
68573.1,76.9581,-1691.49,0,0
69874.7,76.233,-1662.19,0,0
71176.3,70.8643,-1631.8,0,0
72478,69.3744,-1599.16,0,0
73779.6,67.8466,-1570.72,0,0
75081.2,64.2951,-1542.41,0,0
76382.825,60.7637,-1513.18,0,0
77684.45,58.4866,-1484.26,0,0
78986.075,56.2834,-1455.9,0,0
80287.7,54.8339,-1427.96,0,0
81589.325,53.8532,-1400.76,0,0
82890.95,53.2481,-1374.4,0,0
84192.575,53.0246,-1348.77,0,0
85494.2,52.9304,-1323.83,0,0
86795.825,53.1363,-1299.5,0,0
88097.45,53.6036,-1275.55,0,0
89399.075,54.9873,-1251.85,0,0
90700.7,57.2485,-1229.89,0,0
92002.3,60.1251,-1208.9,0,0
93303.9,63.6832,-1190.29,0,0
94605.6,65.2971,-1175.78,0,0
95907.2,59.5839,-1158.84,0,0
97208.8,58.7219,-1137.91,0,0
98510.4,58.7917,-1119.04,0,0
99812.1,57.9411,-1100.8,0,0
101114,56.9794,-1081.37,0,0
102415,57.9879,-1060.81,0,0
103717,62.0678,-1043.05,0,0
105019,65.8681,-1029.33,0,0
106320.175,64.2661,-1016.85,0,0
107621.8,60.9004,-1000.88,0,0
108923.425,58.847,-982.825,0,0
110225.05,58.7769,-963.83,0,0
111526.675,61.3454,-945.584,0,0
112828.3,63.3861,-929.649,0,0
114129.925,65.0006,-913.396,0,0
115431.55,67.4913,-896.865,0,0
116733.175,71.1731,-880.384,0,0
118034.8,76.8711,-864.909,0,0
119336.425,83.8228,-853.527,0,0
120638.05,88.553,-847.224,0,0
121939.675,86.5489,-838.121,0,0
123241,86.8533,-825.218,0,0
124543,88.1529,-814.124,0,0
125845,89.0048,-803.924,0,0
127146,88.1315,-793.996,0,0
128448,86.2381,-782.868,0,0
129749,84.5536,-769.458,0,0
131051,85.4667,-755.996,0,0
132353,85.1916,-744.792,0,0
133654,84.504,-732.578,0,0
134956,83.3496,-719.881,0,0
136258,82.1689,-706.109,0,0
137559,82.3579,-691.092,0,0
138860.775,83.6545,-677.537,0,0
140162.4,82.9874,-664.338,0,0
141464.025,82.9404,-649.597,0,0
142765.65,82.6208,-633.925,0,0
144067.275,82.9674,-616.942,0,0
145368.9,84.7216,-599.134,0,0
146670.525,87.204,-580.328,0,0
147972.15,91.8006,-560.31,0,0
149273.775,98.3997,-540.181,0,0
150575.4,108.559,-519.648,0,0
151877.025,121.77,-502.552,0,0
153178.65,134.617,-488.578,0,0
154480,145.369,-476.268,0,0
155782,153.74,-460.74,0,0
157084,165.933,-444.304,0,0
158385,181,-430.899,0,0
159687,189.858,-416.184,0,0
160988,202.649,-389.132,0,0
162290,231.82,-362.852,0,0
163592,270.46,-346.315,0,0
164893,316.46,-338.402,0,0
166195,368.265,-352.204,0,0
167497,404.92,-384.844,0,0
168798,423.967,-422.957,0,0
170100,427.968,-459.151,0,0
171401.375,411.176,-479.418,0,0
172703.0,405.43,-482.887,0,0
174004.625,410.364,-487.718,0,0
175306.25,418.937,-507.248,0,0
176607.875,407.314,-530.118,0,0
177909.5,389.413,-542.373,0,0
179211.125,364.867,-537.898,0,0
180512.75,356.538,-523.799,0,0
181814.375,360.845,-518.471,0,0
183116.0,354.63,-525.287,0,0
184417.625,340.328,-520.411,0,0
185719.25,327.533,-506.35,0,0
187021,322.46,-485.34,0,0
188322,328.379,-466.241,0,0
189624,335.218,-452.756,0,0
190926,344.041,-437.131,0,0
192227,354.018,-423.997,0,0
193529,365.597,-407.874,0,0
194831,387.456,-389.129,0,0
196132,421.215,-386.879,0,0
197434,444.259,-398.543,0,0
198735,453.668,-407.735,0,0
200037,461.477,-406.934,0,0
201339,469.886,-406.387,0,0
202640.35,483.283,-397.988,0,0
203941.975,509.706,-391.356,0,0
205243.6,541.251,-398.003,0,0
206545.225,561.878,-417.227,0,0
207846.85,576.357,-423.467,0,0
209148.475,602.25,-428.629,0,0
210450.1,635.945,-445.015,0,0
211751.725,665.228,-473.923,0,0
213053.35,688.231,-507.696,0,0
214354.975,707.38,-548.799,0,0
215656.6,716.867,-595.488,0,0
216958.225,718.102,-643.682,0,0
218259.85,705.864,-692.513,0,0
219561,682.795,-733.641,0,0
220863,664.742,-767.228,0,0
222165,633.107,-808.449,0,0
223466,589.003,-833.731,0,0
224768,546.843,-839.89,0,0
226070,520.564,-837.448,0,0
227371,503.614,-845.088,0,0
228673,478.782,-856.487,0,0
229974,449.716,-865.114,0,0
231276,418.799,-866.655,0,0
232578,391.278,-863.015,0,0
233879,366.832,-858.053,0,0
235180.95,343.622,-853.133,0,0
236482.575,319.592,-847.067,0,0
237784.2,295.552,-836.993,0,0
239085.825,272.542,-822.931,0,0
240387.45,254.733,-804.57,0,0
241689.075,241.862,-785.949,0,0
242990.7,233.295,-767.876,0,0
244292.325,228.575,-751.996,0,0
245593.95,224.549,-740.043,0,0
246895.575,219.923,-728.373,0,0
248197.2,216.081,-716.641,0,0
249498.825,214.884,-705.491,0,0
250800,214.152,-698.086,0,0
252102,209.743,-692.498,0,0
253404,202.096,-683.231,0,0
254705,197.164,-668.236,0,0
256007,197.411,-651.932,0,0
257309,205.085,-636.855,0,0
258610,215.781,-628.917,0,0
259912,225.79,-622.814,0,0
261213,240.115,-623.025,0,0
262515,251.047,-633.12,0,0
263817,251.633,-647.631,0,0
265118,243.335,-659.69,0,0
266420,228.544,-665.133,0,0
267721.55,213.933,-661.745,0,0
269023.175,203.661,-653.187,0,0
270324.8,198.052,-643.417,0,0
271626.425,196.046,-634.123,0,0
272928.05,196.17,-626.686,0,0
274229.675,196.419,-620.605,0,0
275531.3,198.595,-613.378,0,0
276832.925,204.829,-608.095,0,0
278134.55,213.135,-609.58,0,0
279436.175,217.024,-616.969,0,0
280737.8,213.281,-625.562,0,0
282039.425,205.989,-629.057,0,0
283341,197.939,-630.739,0,0
284643,189.41,-628.773,0,0
285944,181.977,-624.955,0,0
287246,175.747,-618.469,0,0
288548,174.002,-610.622,0,0
289849,175.546,-606.527,0,0
291151,174.93,-605.208,0,0
292452,172.822,-603.453,0,0
293754,170.941,-599.948,0,0
295056,171.999,-596.812,0,0
296357,174.103,-597.243,0,0
297659,173.544,-600.46,0,0
298960.525,169.515,-604.1,0,0
300262.15,163.298,-605.529,0,0
301563.775,156.506,-605.283,0,0
302865.4,149.357,-603.296,0,0
304167.025,142.944,-599.675,0,0
305468.65,137.491,-594.957,0,0
306770.275,133.298,-589.819,0,0
308071.9,130.631,-584.637,0,0
309373.525,128.905,-581.015,0,0
310675.15,126.037,-578.426,0,0
311976.775,122.195,-575.074,0,0
313278.4,118.013,-570.847,0,0
314580,114.533,-564.715,0,0
315882,113.384,-557.988,0,0
317183,114.398,-552.732,0,0
318485,115.503,-549.709,0,0
319787,115.453,-547.437,0,0
321088,115.17,-544.984,0,0
322390,115.511,-543.046,0,0
323691,115.694,-542.644,0,0
324993,114.191,-543.2,0,0
326295,111.045,-543.491,0,0
327596,106.841,-542.608,0,0
328898,102.642,-540.389,0,0
330200,98.8908,-537.951,0,0
331501.125,94.6584,-535.3,0,0
332802.75,90.0786,-531.735,0,0
334104.375,85.7423,-527.214,0,0
335406.0,81.9314,-521.765,0,0
336707.625,79.2184,-515.469,0,0
338009.25,77.5868,-509.348,0,0
339310.875,76.4675,-503.012,0,0
340612.5,76.6991,-496.425,0,0
341914.125,78.6426,-490.959,0,0
343215.75,81.1417,-487.355,0,0
344517.375,82.6585,-485.406,0,0
345819.0,82.7627,-483.756,0,0
347121,82.1112,-481.5,0,0
348422,81.3866,-478.638,0,0
349724,81.2802,-475.208,0,0
351025,82.0387,-472.131,0,0
352327,83.2216,-470.39,0,0
353629,83.2587,-469.845,0,0
354930,81.5051,-468.9,0,0
356232,79.4129,-466.491,0,0
357534,77.9692,-463.38,0,0
358835,76.9037,-460.125,0,0
360137,76.1778,-456.511,0,0
361438,76.0842,-453.121,0,0
362740.1,76.4581,-449.782,0,0
364041.725,77.1718,-446.846,0,0
365343.35,78.5417,-444.803,0,0
366644.975,79.2025,-444.532,0,0
367946.6,77.3018,-444.165,0,0
369248.225,74.4567,-441.35,0,0
370549.85,73.8791,-436.418,0,0
371851.475,75.8408,-433.421,0,0
373153.1,76.3296,-432.833,0,0
374454.725,74.9462,-431.543,0,0
375756.35,73.4194,-429.012,0,0
377057.975,72.502,-425.464,0,0
378359.6,72.9193,-421.858,0,0
379661,73.9084,-419.228,0,0
380963,74.6049,-417.262,0,0
382264,75.3503,-415.622,0,0
383566,75.4763,-414.797,0,0
384868,74.4839,-413.686,0,0
386169,73.0749,-411.702,0,0
387471,71.8197,-408.88,0,0
388773,71.08,-405.599,0,0
390074,70.8651,-401.963,0,0
391376,71.6093,-398.152,0,0
392677,73.1406,-394.805,0,0
393979,75.4334,-392.285,0,0
395280.7,77.8313,-390.834,0,0
396582.325,79.8903,-390.566,0,0
397883.95,80.9995,-391.04,0,0
399185.575,80.8883,-391.81,0,0
400006.6,80.1496,-392.016,0,0

File: sample_4.csv
Frequency (Hz),Impedance (ohms),Phase (Radians),Temperature (C),Humidity (%)
10000.0,264.533,-11839.5,0,0
11301.625,236.067,-10489.5,0,0
12603.25,213.677,-9410.73,0,0
13904.875,194.712,-8532.7,0,0
15206.5,182.589,-7810.35,0,0
16508.125,183.773,-7194.13,0,0
17809.75,157.363,-6691.35,0,0
19111.375,146.233,-6236.02,0,0
20413.0,142.159,-5837.51,0,0
21714.625,145.536,-5491.15,0,0
23016.25,126.253,-5193.46,0,0
24317.875,117.49,-4909.58,0,0
25619.5,113.293,-4657.12,0,0
26921.1,107.732,-4428.65,0,0
28222.7,119.612,-4222.18,0,0
29524.4,113.748,-4045.95,0,0
30826,100.069,-3875.7,0,0
32127.6,99.6927,-3715.65,0,0
33429.2,90.9398,-3575.3,0,0
34730.9,86.1443,-3437.4,0,0
36032.5,82.5297,-3309.92,0,0
37334.1,80.577,-3191.71,0,0
38635.7,77.9029,-3080.11,0,0
39937.4,77.4459,-2974.69,0,0
41239,80.1468,-2880.03,0,0
42540.6,79.6365,-2792.71,0,0
43842.225,74.4977,-2709.57,0,0
45143.85,72.0515,-2628.75,0,0
46445.475,71.3986,-2551.94,0,0
47747.1,70.6377,-2482.49,0,0
49048.725,66.8443,-2413.4,0,0
50350.35,65.1176,-2346.03,0,0
51651.975,64.5507,-2281.36,0,0
52953.6,66.4535,-2218.74,0,0
54255.225,74.3622,-2162.75,0,0
55556.85,72.3946,-2119.35,0,0
56858.475,66.2898,-2066.17,0,0
58160.1,67.0655,-2013.71,0,0
59461.7,71.3737,-1963.16,0,0
60763.3,80.6227,-1925.6,0,0
62065,70.3202,-1892.37,0,0
63366.6,64.9684,-1846.92,0,0
64668.2,65.0952,-1803.75,0,0
65969.8,66.8895,-1763.62,0,0
67271.5,70.7097,-1727.33,0,0
68573.1,74.1595,-1698.63,0,0
69874.7,66.706,-1668.57,0,0
71176.3,65.7933,-1634.54,0,0
72478,59.5632,-1603.36,0,0
73779.6,58.1705,-1566.71,0,0
75081.2,60.2651,-1534.15,0,0
76382.825,62.6766,-1505.31,0,0
77684.45,65.4205,-1477.52,0,0
78986.075,64.4519,-1455.16,0,0
80287.7,61.3319,-1428.45,0,0
81589.325,60.6723,-1402.43,0,0
82890.95,59.441,-1377.48,0,0
84192.575,58.2979,-1352.7,0,0
85494.2,57.4699,-1328.42,0,0
86795.825,56.8055,-1304.89,0,0
88097.45,55.5052,-1282.43,0,0
89399.075,53.9068,-1258.12,0,0
90700.7,53.8103,-1235.07,0,0
92002.3,54.0996,-1212.19,0,0
93303.9,55.3698,-1191.42,0,0
94605.6,54.067,-1171.11,0,0
95907.2,53.4201,-1148.76,0,0
97208.8,54.2588,-1127.14,0,0
98510.4,55.4665,-1105.94,0,0
99812.1,58.0357,-1085.28,0,0
101114,62.158,-1066.64,0,0
102415,61.2789,-1052.16,0,0
103717,58.1978,-1029.98,0,0
105019,61.8899,-1006.22,0,0
106320.175,68.1673,-986.182,0,0
107621.8,74.5859,-968.129,0,0
108923.425,82.5008,-951.044,0,0
110225.05,90.375,-937.996,0,0
111526.675,96.6971,-926.399,0,0
112828.3,102.372,-916,0,0
114129.925,106.561,-907.292,0,0
115431.55,109.018,-899.371,0,0
116733.175,108.917,-891.478,0,0
118034.8,106.641,-881.13,0,0
119336.425,107.916,-867.356,0,0
120638.05,112.896,-862.357,0,0
121939.675,105.894,-856.392,0,0
123241,100.79,-844.233,0,0
124543,97.7202,-831.782,0,0
125845,95.0713,-819.297,0,0
127146,92.1832,-808.191,0,0
128448,87.3112,-795.956,0,0
129749,81.1468,-781.5,0,0
131051,76.5441,-764.034,0,0
132353,73.9709,-745.531,0,0
133654,73.061,-726.699,0,0
134956,73.67,-707.715,0,0
136258,75.9363,-689.348,0,0
137559,78.8801,-671.923,0,0
138860.775,80.8023,-654.529,0,0
140162.4,83.9351,-635.777,0,0
141464.025,88.9605,-616.695,0,0
142765.65,94.964,-598.586,0,0
144067.275,101.487,-580.405,0,0
145368.9,109.266,-561.809,0,0
146670.525,118.56,-543.258,0,0
147972.15,129.451,-525.291,0,0
149273.775,141.778,-506.91,0,0
150575.4,157.322,-489.157,0,0
151877.025,176.193,-473.41,0,0
153178.65,197.622,-461.619,0,0
154480,218.976,-456.368,0,0
155782,235.651,-452.802,0,0
157084,251.504,-450.087,0,0
158385,266.345,-445.084,0,0
159687,286.938,-442.456,0,0
160988,304.383,-448.995,0,0
162290,311.699,-456.689,0,0
163592,316.165,-455.293,0,0
164893,325.721,-447.798,0,0
166195,343.01,-443.383,0,0
167497,367.199,-442.413,0,0
168798,396.235,-458.433,0,0
170100,411.007,-488.79,0,0
171401.375,408.645,-525.652,0,0
172703.0,383.502,-551.241,0,0
174004.625,349.528,-557.049,0,0
175306.25,322.19,-545.176,0,0
176607.875,304.569,-524.279,0,0
177909.5,297.724,-500.668,0,0
179211.125,298.128,-480.341,0,0
180512.75,300.791,-462.11,0,0
181814.375,304.342,-445.201,0,0
183116.0,307.746,-427.783,0,0
184417.625,312.374,-406.969,0,0
185719.25,320.678,-383.616,0,0
187021,334.078,-358,0,0
188322,353.278,-331.615,0,0
189624,379.374,-305.456,0,0
190926,413.544,-280.587,0,0
192227,457.063,-261.202,0,0
193529,506.929,-250.664,0,0
194831,559.88,-248.595,0,0
196132,616.697,-254.68,0,0
197434,678.41,-270.28,0,0
198735,745.369,-303.16,0,0
200037,807.53,-360.043,0,0
201339,849.368,-436.536,0,0
202640.35,865.055,-520.338,0,0
203941.975,857.869,-594.032,0,0
205243.6,841.745,-661.107,0,0
206545.225,816.708,-721.757,0,0
207846.85,782.307,-776.941,0,0
209148.475,731.799,-823.446,0,0
210450.1,675.881,-845.929,0,0
211751.725,629.381,-853.153,0,0
213053.35,591.375,-850.736,0,0
214354.975,566.231,-844.475,0,0
215656.6,552.604,-844.579,0,0
216958.225,536.263,-853.587,0,0
218259.85,515.753,-862.535,0,0
219561,493.209,-868.08,0,0
220863,472.649,-874.256,0,0
222165,449.31,-879.992,0,0
223466,424.558,-881.71,0,0
224768,401.136,-883.025,0,0
226070,375.37,-884.001,0,0
227371,346.453,-879.41,0,0
228673,318.944,-870.04,0,0
229974,294.069,-854.491,0,0
231276,275.288,-835.643,0,0
232578,262.064,-817.597,0,0
233879,251.762,-800.32,0,0
235180.95,244.468,-784.474,0,0
236482.575,239.013,-770.493,0,0
237784.2,234.372,-757.144,0,0
239085.825,232.365,-744.992,0,0
240387.45,231.227,-735.838,0,0
241689.075,229.32,-729.348,0,0
242990.7,225.612,-723.659,0,0
244292.325,220.405,-717.73,0,0
245593.95,213.841,-710.713,0,0
246895.575,207.902,-701.078,0,0
248197.2,204.768,-691.014,0,0
249498.825,202.279,-682.956,0,0
250800,198.786,-675.099,0,0
252102,195.069,-667.766,0,0
253404,188.286,-658.613,0,0
254705,183.13,-644.149,0,0
256007,181.503,-627.856,0,0
257309,184.508,-609.632,0,0
258610,192.671,-592.636,0,0
259912,205.962,-577.077,0,0
261213,225.206,-566.698,0,0
262515,246.286,-564.827,0,0
263817,266.687,-569.052,0,0
265118,283.788,-579.818,0,0
266420,298.162,-597.214,0,0
267721.55,302.079,-620.621,0,0
269023.175,296.725,-640.018,0,0
270324.8,285.213,-656.804,0,0
271626.425,271.346,-663.332,0,0
272928.05,263.025,-669.09,0,0
274229.675,251.846,-677.501,0,0
275531.3,235.695,-684.357,0,0
276832.925,214.952,-684.577,0,0
278134.55,196.218,-675.52,0,0
279436.175,184.34,-661.436,0,0
280737.8,181.13,-647.72,0,0
282039.425,180.695,-639.901,0,0
283341,178.821,-632.804,0,0
284643,180.101,-628.258,0,0
285944,177.992,-626.303,0,0
287246,173.102,-623.577,0,0
288548,166.458,-615.35,0,0
289849,166.763,-601.894,0,0
291151,176.249,-592.505,0,0
292452,188.625,-592.06,0,0
293754,197.528,-599.958,0,0
295056,198.766,-612.894,0,0
296357,190.972,-623.812,0,0
297659,179.326,-628.573,0,0
298960.525,168.607,-627.994,0,0
300262.15,160.115,-626.059,0,0
301563.775,152.122,-623.404,0,0
302865.4,144.161,-619.438,0,0
304167.025,137.529,-614.14,0,0
305468.65,132.277,-608.349,0,0
306770.275,128.399,-602.223,0,0
308071.9,126.132,-597.073,0,0
309373.525,123.921,-593.17,0,0
310675.15,121.128,-589.862,0,0
311976.775,117.725,-586.386,0,0
313278.4,114.278,-581.935,0,0
314580,111.939,-577.177,0,0
315882,110.558,-572.849,0,0
317183,109.589,-569.712,0,0
318485,108.493,-567.703,0,0
319787,105.961,-566.737,0,0
321088,101.838,-565.658,0,0
322390,95.9476,-563.786,0,0
323691,89.0992,-558.913,0,0
324993,84.3335,-551.666,0,0
326295,81.5284,-544.93,0,0
327596,79.0863,-538.299,0,0
328898,77.5171,-531.223,0,0
330200,77.419,-524.189,0,0
331501.125,78.7729,-518.495,0,0
332802.75,79.8951,-514.762,0,0
334104.375,79.7604,-511.721,0,0
335406.0,78.5632,-508.387,0,0
336707.625,76.9202,-504.23,0,0
338009.25,75.2868,-498.919,0,0
339310.875,74.9712,-492.469,0,0
340612.5,76.4621,-486.217,0,0
341914.125,79.2948,-480.609,0,0
343215.75,83.59,-476.876,0,0
344517.375,87.5241,-475.995,0,0
345819.0,89.3879,-476.585,0,0
347121,89.2858,-477.096,0,0
348422,88.0674,-476.839,0,0
349724,86.0801,-475.676,0,0
351025,83.8613,-473.592,0,0
352327,81.9177,-470.386,0,0
353629,80.749,-466.535,0,0
354930,80.879,-462.66,0,0
356232,81.3627,-460.162,0,0
357534,81.1355,-458.122,0,0
358835,79.9622,-456.062,0,0
360137,78.283,-452.546,0,0
361438,77.8817,-448.051,0,0
362740.1,78.4722,-444.026,0,0
364041.725,79.5309,-440.634,0,0
365343.35,80.1026,-437.96,0,0
366644.975,79.9876,-434.282,0,0
367946.6,81.079,-429.569,0,0
369248.225,83.9243,-424.75,0,0
370549.85,88.722,-421.508,0,0
371851.475,94.0287,-420.483,0,0
373153.1,98.8898,-422.245,0,0
374454.725,100.847,-426.058,0,0
375756.35,99.9368,-428.4,0,0
377057.975,99.1712,-429.39,0,0
378359.6,98.1454,-430.346,0,0
379661,96.4728,-430.661,0,0
380963,95.3131,-430.357,0,0
382264,94.2841,-430.179,0,0
383566,93.7286,-430.393,0,0
384868,92.3619,-432.27,0,0
386169,88.1642,-433.711,0,0
387471,83.022,-432.372,0,0
388773,78.8883,-428.739,0,0
390074,77.4814,-424.363,0,0
391376,78.0274,-422.012,0,0
392677,77.2891,-422.236,0,0
393979,73.7174,-422.307,0,0
395280.7,69.0657,-419.999,0,0
396582.325,65.3019,-415.818,0,0
397883.95,62.8141,-411.101,0,0
399185.575,61.1569,-406.232,0,0
400006.6,60.4163,-403.14,0,0