Folder: ML_Dmg_Mehdi_Dataset/Accelerated corrosion test data/2025-10-03_06-00-02 (part 4)

File: sample_8.csv
Frequency (Hz),Impedance (ohms),Phase (Radians),Temperature (C),Humidity (%)
10000.0,313.633,-10946.1,0,0
11301.625,277.898,-9701.2,0,0
12603.25,255.207,-8711.85,0,0
13904.875,226.949,-7912.45,0,0
15206.5,206.719,-7240.54,0,0
16508.125,190.83,-6675.23,0,0
17809.75,177.444,-6189.67,0,0
19111.375,168.491,-5768.91,0,0
20413.0,160.641,-5407.14,0,0
21714.625,151.472,-5087.17,0,0
23016.25,144.433,-4804.67,0,0
24317.875,134.776,-4548.39,0,0
25619.5,128.361,-4316.66,0,0
26921.1,122.805,-4106.65,0,0
28222.7,119.382,-3915.91,0,0
29524.4,116.653,-3743.26,0,0
30826,114.303,-3586.6,0,0
32127.6,111.767,-3440.73,0,0
33429.2,112.905,-3305.85,0,0
34730.9,111.333,-3186.92,0,0
36032.5,107.224,-3077.15,0,0
37334.1,100.324,-2971.81,0,0
38635.7,93.2462,-2871.5,0,0
39937.4,87.4897,-2775.57,0,0
41239,85.0339,-2684.59,0,0
42540.6,82.8597,-2599.98,0,0
43842.225,82.1071,-2521.82,0,0
45143.85,78.879,-2447.84,0,0
46445.475,76.3215,-2376.97,0,0
47747.1,74.8303,-2309.74,0,0
49048.725,72.9055,-2246.98,0,0
50350.35,71.0293,-2186.18,0,0
51651.975,70.047,-2128.25,0,0
52953.6,69.6035,-2073.91,0,0
54255.225,68.4592,-2023.95,0,0
55556.85,65.4758,-1974.57,0,0
56858.475,63.1377,-1925.57,0,0
58160.1,62.3129,-1878.85,0,0
59461.7,62.3871,-1835.06,0,0
60763.3,60.728,-1792.57,0,0
62065,60.5758,-1751.6,0,0
63366.6,60.8705,-1711.83,0,0
64668.2,62.3498,-1675.4,0,0
65969.8,61.4116,-1641.38,0,0
67271.5,59.356,-1607.05,0,0
68573.1,58.3577,-1573.08,0,0
69874.7,57.9671,-1539.77,0,0
71176.3,58.6111,-1508.26,0,0
72478,59.0499,-1478.71,0,0
73779.6,57.8062,-1449.73,0,0
75081.2,57.4127,-1421.2,0,0
76382.825,57.4378,-1393.18,0,0
77684.45,57.4348,-1366.57,0,0
78986.075,56.9629,-1340.36,0,0
80287.7,56.9682,-1314.35,0,0
81589.325,57.4272,-1289.08,0,0
82890.95,58.3672,-1263.95,0,0
84192.575,60.3661,-1240.14,0,0
85494.2,61.8834,-1218.81,0,0
86795.825,61.6216,-1196.48,0,0
88097.45,62.9999,-1173.94,0,0
89399.075,65.2011,-1152.36,0,0
90700.7,68.0801,-1131.38,0,0
92002.3,72.7937,-1112.36,0,0
93303.9,75.7089,-1097.54,0,0
94605.6,74.9773,-1080.59,0,0
95907.2,76.1192,-1062.99,0,0
97208.8,77.5834,-1045.73,0,0
98510.4,79.8626,-1030.11,0,0
99812.1,80.4649,-1016.17,0,0
101114,81.1412,-1001.41,0,0
102415,80.4605,-987.098,0,0
103717,79.8346,-972.038,0,0
105019,78.9546,-956.894,0,0
106320.175,79.1537,-940.821,0,0
107621.8,80.4252,-926.394,0,0
108923.425,80.8682,-911.902,0,0
110225.05,81.993,-898.3,0,0
111526.675,82.1968,-885.459,0,0
112828.3,82.3808,-872.151,0,0
114129.925,82.2469,-859.306,0,0
115431.55,81.8567,-846.13,0,0
116733.175,81.533,-833.261,0,0
118034.8,80.6597,-819.869,0,0
119336.425,80.9508,-806.237,0,0
120638.05,80.5141,-793.045,0,0
121939.675,80.3961,-779.45,0,0
123241,80.9286,-766.042,0,0
124543,80.8868,-752.329,0,0
125845,81.9301,-738.729,0,0
127146,83.052,-725.441,0,0
128448,84.2923,-712.702,0,0
129749,84.8251,-700.377,0,0
131051,84.3236,-686.329,0,0
132353,87.1473,-672.374,0,0
133654,88.5452,-658.52,0,0
134956,90.681,-645.292,0,0
136258,93.9032,-631.83,0,0
137559,96.4895,-621.011,0,0
138860.775,95.3706,-608.267,0,0
140162.4,96.8275,-593.142,0,0
141464.025,97.9555,-578.082,0,0
142765.65,100.369,-561.341,0,0
144067.275,103.652,-544.067,0,0
145368.9,109.314,-524.462,0,0
146670.525,119.644,-506.645,0,0
147972.15,130.905,-492.051,0,0
149273.775,137.293,-476.61,0,0
150575.4,151.821,-456.569,0,0
151877.025,175.412,-441.415,0,0
153178.65,195.819,-444.186,0,0
154480,202.965,-445.181,0,0
155782,211.44,-436.035,0,0
157084,222.889,-440.519,0,0
158385,217.185,-430.477,0,0
159687,233.547,-414.025,0,0
160988,242.579,-418.479,0,0
162290,246.946,-405.28,0,0
163592,264.888,-397.982,0,0
164893,276.314,-402.96,0,0
166195,283.152,-407.061,0,0
167497,274.864,-412.108,0,0
168798,264.082,-400.263,0,0
170100,261.305,-379.107,0,0
171401.375,265.303,-356.743,0,0
172703.0,275.195,-330.938,0,0
174004.625,295.162,-308.477,0,0
175306.25,318.233,-293.898,0,0
176607.875,335.818,-278.658,0,0
177909.5,361.515,-261.166,0,0
179211.125,392.499,-246.601,0,0
180512.75,427.622,-239.937,0,0
181814.375,461.3,-239.979,0,0
183116.0,492.749,-241.447,0,0
184417.625,520.695,-246.586,0,0
185719.25,548.302,-246.329,0,0
187021,588.423,-244.261,0,0
188322,631.316,-251.673,0,0
189624,681.012,-272.683,0,0
190926,718.115,-299.013,0,0
192227,765.89,-322.88,0,0
193529,807.895,-364.118,0,0
194831,868.629,-414.193,0,0
196132,906.555,-506.045,0,0
197434,915.823,-613.196,0,0
198735,874.709,-711.39,0,0
200037,817.641,-782.908,0,0
201339,744.793,-826.441,0,0
202640.35,682.251,-850.269,0,0
203941.975,616.197,-857.16,0,0
205243.6,561.529,-843.314,0,0
206545.225,522.976,-824.007,0,0
207846.85,500.155,-796.728,0,0
209148.475,492.04,-780.322,0,0
210450.1,487.495,-766.828,0,0
211751.725,488.671,-762.785,0,0
213053.35,489.33,-764.8,0,0
214354.975,485.65,-775.981,0,0
215656.6,470.744,-785.598,0,0
216958.225,452.987,-785.078,0,0
218259.85,446.178,-776.946,0,0
219561,447.412,-778.166,0,0
220863,446.456,-786.153,0,0
222165,442.259,-799.483,0,0
223466,430.508,-815.793,0,0
224768,413.242,-826.783,0,0
226070,395.11,-837.631,0,0
227371,370.826,-845.634,0,0
228673,345.742,-846.468,0,0
229974,324.432,-843.331,0,0
231276,303.385,-840.558,0,0
232578,281.584,-834.914,0,0
233879,259.84,-825.43,0,0
235180.95,240.731,-812.039,0,0
236482.575,226.126,-795.852,0,0
237784.2,216.592,-779.721,0,0
239085.825,210.732,-765.855,0,0
240387.45,207.354,-755.981,0,0
241689.075,200.678,-749.754,0,0
242990.7,190.692,-741.761,0,0
244292.325,181.711,-729.936,0,0
245593.95,174.623,-718.034,0,0
246895.575,168.668,-703.886,0,0
248197.2,166.543,-690.299,0,0
249498.825,164.768,-678.039,0,0
250800,164.862,-664.922,0,0
252102,167.845,-652.416,0,0
253404,173.974,-644.097,0,0
254705,176.135,-638.972,0,0
256007,178.136,-630.912,0,0
257309,182.844,-624.017,0,0
258610,187.891,-618.032,0,0
259912,194.438,-614.436,0,0
261213,200.349,-612.814,0,0
262515,205.654,-613.568,0,0
263817,207.758,-614.683,0,0
265118,209.279,-613.684,0,0
266420,213.933,-610.048,0,0
267721.55,224.243,-609.806,0,0
269023.175,236.498,-617.13,0,0
270324.8,244.234,-632.91,0,0
271626.425,244.631,-653.146,0,0
272928.05,234.753,-674.485,0,0
274229.675,213.914,-689.825,0,0
275531.3,189.459,-693.89,0,0
276832.925,168.84,-688.256,0,0
278134.55,154.213,-680.469,0,0
279436.175,142.046,-671.327,0,0
280737.8,133.107,-660.448,0,0
282039.425,128.42,-650.4,0,0
283341,125.547,-641.665,0,0
284643,124.199,-634.756,0,0
285944,123.765,-629.085,0,0
287246,125.553,-625.753,0,0
288548,125.162,-628.687,0,0
289849,118.255,-630.841,0,0
291151,109.739,-629.217,0,0
292452,102.04,-626.092,0,0
293754,93.2644,-621.281,0,0
295056,85.8994,-613.898,0,0
296357,80.4063,-606.004,0,0
297659,76.1697,-597.972,0,0
298960.525,73.0256,-589.877,0,0
300262.15,70.9505,-581.922,0,0
301563.775,69.9105,-574.226,0,0
302865.4,70.133,-567.152,0,0
304167.025,71.0173,-561.443,0,0
305468.65,71.7317,-556.811,0,0
306770.275,72.5524,-552.639,0,0
308071.9,73.331,-549.666,0,0
309373.525,73.3687,-547.687,0,0
310675.15,71.8726,-545.769,0,0
311976.775,70.062,-543.053,0,0
313278.4,68.1931,-540.233,0,0
314580,65.8843,-537.262,0,0
315882,63.4193,-533.325,0,0
317183,61.8178,-528.838,0,0
318485,61.0274,-524.538,0,0
319787,60.6054,-520.902,0,0
321088,60.3677,-518.017,0,0
322390,59.2862,-515.676,0,0
323691,57.7765,-513.164,0,0
324993,55.7845,-510.667,0,0
326295,53.3809,-507.461,0,0
327596,51.3082,-503.725,0,0
328898,49.386,-499.763,0,0
330200,47.7978,-495.659,0,0
331501.125,46.4072,-491.452,0,0
332802.75,45.2011,-487.134,0,0
334104.375,44.4694,-482.734,0,0
335406.0,44.1719,-478.443,0,0
336707.625,44.2615,-474.638,0,0
338009.25,44.1983,-471.312,0,0
339310.875,43.9468,-468.19,0,0
340612.5,43.47,-465.175,0,0
341914.125,42.8057,-461.972,0,0
343215.75,41.9837,-458.671,0,0
344517.375,41.2997,-455.07,0,0
345819.0,40.8524,-451.316,0,0
347121,40.6306,-447.573,0,0
348422,40.7921,-443.897,0,0
349724,40.9973,-440.438,0,0
351025,41.44,-437.083,0,0
352327,41.9846,-434.103,0,0
353629,42.3174,-431.283,0,0
354930,42.6775,-428.462,0,0
356232,43.1107,-425.965,0,0
357534,43.2654,-423.612,0,0
358835,43.1556,-421.21,0,0
360137,42.8875,-418.481,0,0
361438,42.7306,-415.653,0,0
362740.1,42.8126,-412.658,0,0
364041.725,43.0079,-409.588,0,0
365343.35,43.4723,-406.59,0,0
366644.975,44.2346,-403.724,0,0
367946.6,45.0162,-401.268,0,0
369248.225,45.6762,-398.758,0,0
370549.85,46.7133,-396.223,0,0
371851.475,48.0069,-394.351,0,0
373153.1,48.8956,-392.991,0,0
374454.725,49.2024,-391.709,0,0
375756.35,49.3747,-390.08,0,0
377057.975,49.6555,-388.492,0,0
378359.6,49.8051,-387.246,0,0
379661,49.3001,-385.647,0,0
380963,49.6599,-383.322,0,0
382264,50.5319,-382.685,0,0
383566,49.3098,-382.444,0,0
384868,47.64,-380.697,0,0
386169,46.2879,-378.311,0,0
387471,45.3259,-375.491,0,0
388773,44.789,-372.487,0,0
390074,44.7981,-369.54,0,0
391376,44.8813,-367.096,0,0
392677,44.7921,-364.624,0,0
393979,44.7231,-362.002,0,0
395280.7,44.793,-359.313,0,0
396582.325,45.141,-356.608,0,0
397883.95,45.6458,-354.168,0,0
399185.575,45.943,-351.993,0,0
400006.6,46.0561,-350.575,0,0