Folder: ML_Dmg_Mehdi_Dataset/Accelerated corrosion test data/2025-10-16_18-00-04

Note: README.md
# ML_Dmg_Mehdi_Dataset

File: sample_1.csv
Frequency (Hz),Impedance (ohms),Phase (Radians),Temperature (C),Humidity (%)
10000.0,242.136,-12196.3,0,0
11301.625,215.867,-10801.9,0,0
12603.25,195.443,-9702.78,0,0
13904.875,183,-8779.51,0,0
15206.5,186.351,-8047,0,0
16508.125,155.04,-7423.34,0,0
17809.75,145.76,-6888.52,0,0
19111.375,136.311,-6419.91,0,0
20413.0,156.325,-5977.1,0,0
21714.625,137.23,-5659.95,0,0
23016.25,123.154,-5357.63,0,0
24317.875,113.135,-5066.3,0,0
25619.5,105.619,-4801.88,0,0
26921.1,115.151,-4553.1,0,0
28222.7,110.68,-4349.01,0,0
29524.4,106.894,-4183.38,0,0
30826,101.092,-3996.6,0,0
32127.6,98.1888,-3838.46,0,0
33429.2,89.1731,-3694.84,0,0
34730.9,82.0426,-3553.11,0,0
36032.5,78.1488,-3422.09,0,0
37334.1,75.4918,-3300.11,0,0
38635.7,72.9359,-3186.41,0,0
39937.4,71.4072,-3079.77,0,0
41239,72.0908,-2980.89,0,0
42540.6,70.7765,-2888.81,0,0
43842.225,67.7938,-2802.08,0,0
45143.85,68.3429,-2720.7,0,0
46445.475,65.2562,-2644.17,0,0
47747.1,63.7421,-2570.53,0,0
49048.725,61.3811,-2500.34,0,0
50350.35,59.3635,-2433.97,0,0
51651.975,58.5642,-2370.36,0,0
52953.6,57.6392,-2309.52,0,0
54255.225,56.6667,-2252.52,0,0
55556.85,55.7809,-2197.24,0,0
56858.475,54.816,-2144.18,0,0
58160.1,54.492,-2093.56,0,0
59461.7,54.2618,-2045.63,0,0
60763.3,54.4523,-1999.83,0,0
62065,53.0184,-1955.9,0,0
63366.6,52.3941,-1912.36,0,0
64668.2,52.9202,-1870.26,0,0
65969.8,55.0218,-1832.5,0,0
67271.5,53.6872,-1796.06,0,0
68573.1,53.3815,-1760.41,0,0
69874.7,51.9947,-1726.54,0,0
71176.3,50.2972,-1691.97,0,0
72478,48.3588,-1658.24,0,0
73779.6,48.0564,-1624.87,0,0
75081.2,48.4939,-1592.61,0,0
76382.825,49.1107,-1561.62,0,0
77684.45,50.3197,-1532.19,0,0
78986.075,51.8341,-1504.77,0,0
80287.7,51.1968,-1478.28,0,0
81589.325,50.5302,-1450.44,0,0
82890.95,51.2505,-1423.57,0,0
84192.575,52.8031,-1397.58,0,0
85494.2,54.9174,-1372.81,0,0
86795.825,55.9884,-1349.78,0,0
88097.45,56.3094,-1326.56,0,0
89399.075,58.1224,-1301.71,0,0
90700.7,61.4169,-1278.65,0,0
92002.3,67.8774,-1257.66,0,0
93303.9,75.2291,-1240.86,0,0
94605.6,73.7084,-1233.84,0,0
95907.2,66.8032,-1214.98,0,0
97208.8,64.7893,-1194.43,0,0
98510.4,64.2038,-1173.64,0,0
99812.1,63.3565,-1154.16,0,0
101114,63.311,-1134.05,0,0
102415,63.5738,-1112.4,0,0
103717,68.4923,-1091.12,0,0
105019,75.5354,-1073.86,0,0
106320.175,81.8071,-1057.73,0,0
107621.8,88.3329,-1045.64,0,0
108923.425,92.557,-1035.26,0,0
110225.05,94.2393,-1027.04,0,0
111526.675,93.9815,-1014.46,0,0
112828.3,95.842,-1005.05,0,0
114129.925,94.3292,-996.869,0,0
115431.55,90.7958,-986.787,0,0
116733.175,86.3107,-974.329,0,0
118034.8,82.3019,-959.841,0,0
119336.425,80.7958,-944.137,0,0
120638.05,81.3357,-929.771,0,0
121939.675,80.3924,-917.226,0,0
123241,79.1302,-902.874,0,0
124543,79.0216,-887.886,0,0
125845,79.8762,-873.213,0,0
127146,81.1315,-858.911,0,0
128448,83.2567,-844.559,0,0
129749,85.8796,-830.734,0,0
131051,90.724,-817.563,0,0
132353,94.9544,-807.379,0,0
133654,97.5345,-797.006,0,0
134956,100.11,-786.357,0,0
136258,102.8,-775.619,0,0
137559,107.575,-765.844,0,0
138860.775,109.538,-759.461,0,0
140162.4,109.251,-750.66,0,0
141464.025,109.209,-740.513,0,0
142765.65,109.852,-729.648,0,0
144067.275,111.29,-718.185,0,0
145368.9,113.86,-707.019,0,0
146670.525,116.673,-697.117,0,0
147972.15,118.909,-688.113,0,0
149273.775,120.261,-677.077,0,0
150575.4,122.502,-668.537,0,0
151877.025,121.188,-657.105,0,0
153178.65,121.486,-641.894,0,0
154480,125.861,-625.143,0,0
155782,133.54,-608.789,0,0
157084,146.039,-594.138,0,0
158385,158.538,-585.348,0,0
159687,168.29,-574.218,0,0
160988,186.68,-563.617,0,0
162290,206.498,-563.741,0,0
163592,217.784,-567.628,0,0
164893,229.336,-570.055,0,0
166195,241.153,-576.821,0,0
167497,246.084,-588.22,0,0
168798,244.025,-599.476,0,0
170100,234.293,-605.437,0,0
171401.375,225.548,-602.285,0,0
172703.0,222.13,-596.46,0,0
174004.625,218.735,-592.247,0,0
175306.25,217.424,-586.046,0,0
176607.875,217.523,-582.636,0,0
177909.5,216.941,-579.295,0,0
179211.125,212.581,-577.917,0,0
180512.75,205.719,-573.763,0,0
181814.375,198.692,-565.081,0,0
183116.0,192.662,-554.209,0,0
184417.625,187.88,-540.547,0,0
185719.25,186.739,-524.002,0,0
187021,188.161,-509.134,0,0
188322,192.081,-493.976,0,0
189624,196.137,-479.71,0,0
190926,200.472,-464.757,0,0
192227,206.223,-448.253,0,0
193529,214.903,-430.976,0,0
194831,225.445,-413.933,0,0
196132,238.943,-396.023,0,0
197434,255.434,-378.372,0,0
198735,276.253,-361.92,0,0
200037,298.347,-347.039,0,0
201339,325.619,-331.299,0,0
202640.35,361.762,-317.255,0,0
203941.975,405.366,-312.618,0,0
205243.6,456.955,-322.322,0,0
206545.225,500.527,-352.282,0,0
207846.85,527.203,-391.66,0,0
209148.475,539.449,-430.785,0,0
210450.1,537.268,-466.373,0,0
211751.725,526.13,-483.22,0,0
213053.35,525.245,-485.532,0,0
214354.975,538.3,-493.06,0,0
215656.6,550.819,-506.729,0,0
216958.225,561.533,-522.34,0,0
218259.85,575.083,-538.19,0,0
219561,591.707,-556.233,0,0
220863,612.039,-584.298,0,0
222165,629.555,-624.49,0,0
223466,633.349,-675.588,0,0
224768,621.669,-726.012,0,0
226070,598.952,-772.861,0,0
227371,566.228,-813.884,0,0
228673,522.388,-846.291,0,0
229974,474.99,-862.281,0,0
231276,431.188,-865.803,0,0
232578,394.817,-861.573,0,0
233879,366.504,-855.285,0,0
235180.95,342.132,-849.941,0,0
236482.575,317.13,-845.258,0,0
237784.2,292.953,-837.71,0,0
239085.825,270.987,-827.533,0,0
240387.45,252.039,-815.792,0,0
241689.075,235.763,-804.149,0,0
242990.7,221.228,-791.574,0,0
244292.325,209.208,-779.874,0,0
245593.95,197.427,-769.084,0,0
246895.575,185.836,-757.444,0,0
248197.2,175.825,-744.607,0,0
249498.825,167.66,-731.912,0,0
250800,160.743,-719.577,0,0
252102,154.586,-707.322,0,0
253404,149.143,-694.844,0,0
254705,145.48,-681.901,0,0
256007,143.572,-669.83,0,0
257309,142.14,-658.199,0,0
258610,141.782,-646.652,0,0
259912,143.573,-634.928,0,0
261213,147.991,-625.077,0,0
262515,153.222,-617.771,0,0
263817,158.969,-612.724,0,0
265118,164.877,-609.939,0,0
266420,171.267,-611.113,0,0
267721.55,173.137,-617.481,0,0
269023.175,167.89,-623.338,0,0
270324.8,157.706,-624.389,0,0
271626.425,147.874,-618.889,0,0
272928.05,141.81,-609.793,0,0
274229.675,139.964,-600.599,0,0
275531.3,140.372,-593.151,0,0
276832.925,141.5,-587.088,0,0
278134.55,143.709,-582.532,0,0
279436.175,145.52,-580.271,0,0
280737.8,145.826,-579.066,0,0
282039.425,144.676,-578.663,0,0
283341,141.094,-576.98,0,0
284643,137.928,-573.18,0,0
285944,135.282,-569.445,0,0
287246,131.214,-564.864,0,0
288548,128.457,-556.367,0,0
289849,130.593,-548.283,0,0
291151,133.825,-543.993,0,0
292452,135.616,-541.516,0,0
293754,134.667,-538.653,0,0
295056,133.654,-532.673,0,0
296357,136.266,-525.002,0,0
297659,141.611,-520.097,0,0
298960.525,146.822,-516.764,0,0
300262.15,152.08,-514.546,0,0
301563.775,158.237,-512.95,0,0
302865.4,165.763,-514.513,0,0
304167.025,170.949,-518.368,0,0
305468.65,174.833,-522.915,0,0
306770.275,178.068,-528.804,0,0
308071.9,178.788,-536.437,0,0
309373.525,176.609,-542.717,0,0
310675.15,174.605,-548.56,0,0
311976.775,170.768,-555.63,0,0
313278.4,163.362,-561.726,0,0
314580,154.84,-564.444,0,0
315882,147.11,-565.622,0,0
317183,138.854,-565.851,0,0
318485,130.906,-564.422,0,0
319787,123.301,-561.996,0,0
321088,116.221,-558.123,0,0
322390,110.3,-553.359,0,0
323691,105.673,-547.698,0,0
324993,102.781,-542.292,0,0
326295,100.991,-537.659,0,0
327596,99.7724,-534.056,0,0
328898,98.5853,-531.537,0,0
330200,96.8037,-529.707,0,0
331501.125,94.2193,-528.186,0,0
332802.75,90.9522,-526.462,0,0
334104.375,87.1874,-524.087,0,0
335406.0,83.345,-521.085,0,0
336707.625,79.7884,-517.483,0,0
338009.25,76.6314,-513.579,0,0
339310.875,73.6895,-509.498,0,0
340612.5,71.2919,-505.261,0,0
341914.125,69.1523,-501.276,0,0
343215.75,66.8741,-497.29,0,0
344517.375,64.764,-493.242,0,0
345819.0,62.6734,-488.875,0,0
347121,60.8569,-484.31,0,0
348422,59.4243,-479.459,0,0
349724,58.5497,-474.835,0,0
351025,57.8324,-470.373,0,0
352327,57.4149,-466.065,0,0
353629,57.1201,-461.916,0,0
354930,56.972,-457.847,0,0
356232,56.8947,-453.826,0,0
357534,56.9501,-450.077,0,0
358835,57.0401,-446.357,0,0
360137,57.2621,-442.656,0,0
361438,57.7122,-439.132,0,0
362740.1,57.9532,-435.707,0,0
364041.725,58.3096,-432.197,0,0
365343.35,58.8637,-428.721,0,0
366644.975,59.4145,-425.576,0,0
367946.6,59.523,-421.982,0,0
369248.225,60.2953,-417.541,0,0
370549.85,62.2551,-413.106,0,0
371851.475,65.3863,-409.486,0,0
373153.1,68.9309,-407.049,0,0
374454.725,72.3224,-405.92,0,0
375756.35,74.8921,-405.7,0,0
377057.975,76.7784,-405.49,0,0
378359.6,78.559,-405.496,0,0
379661,79.7401,-405.929,0,0
380963,80.9268,-405.959,0,0
382264,82.315,-407.373,0,0
383566,82.0194,-409.601,0,0
384868,80.0737,-411.337,0,0
386169,77.339,-411.846,0,0
387471,74.1659,-411.178,0,0
388773,71.5434,-409.377,0,0
390074,69.7621,-407.137,0,0
391376,68.4734,-405.296,0,0
392677,67.1786,-403.775,0,0
393979,65.1862,-402.298,0,0
395280.7,62.7818,-400.045,0,0
396582.325,60.7743,-397.022,0,0
397883.95,59.3078,-393.638,0,0
399185.575,58.1885,-390.13,0,0
400006.6,57.7314,-387.894,0,0

File: sample_2.csv
Frequency (Hz),Impedance (ohms),Phase (Radians),Temperature (C),Humidity (%)
10000.0,230.304,-11426.7,0,0
11301.625,204.864,-10120.2,0,0
12603.25,184.31,-9085.66,0,0
13904.875,186.639,-8239.35,0,0
15206.5,164.93,-7549.54,0,0
16508.125,143.759,-6955.39,0,0
17809.75,132.997,-6448,0,0
19111.375,128.534,-6008.51,0,0
20413.0,118.587,-5625.47,0,0
21714.625,127.545,-5296.34,0,0
23016.25,112.818,-5000.35,0,0
24317.875,102.83,-4734.46,0,0
25619.5,97.29,-4490.72,0,0
26921.1,94.8481,-4272.7,0,0
28222.7,90.3499,-4073.65,0,0
29524.4,93.1846,-3890.04,0,0
30826,87.8112,-3735.73,0,0
32127.6,82.0902,-3581.64,0,0
33429.2,79.7767,-3442.97,0,0
34730.9,75.6678,-3312.36,0,0
36032.5,73.0963,-3191.12,0,0
37334.1,70.8979,-3077.63,0,0
38635.7,68.6733,-2972.63,0,0
39937.4,66.9461,-2873.62,0,0
41239,65.5493,-2780.83,0,0
42540.6,64.3546,-2694.2,0,0
43842.225,62.9308,-2612.4,0,0
45143.85,61.8143,-2534.66,0,0
46445.475,61.137,-2462.36,0,0
47747.1,60.3153,-2393.19,0,0
49048.725,60.5734,-2328.92,0,0
50350.35,57.7888,-2267.01,0,0
51651.975,56.566,-2207.82,0,0
52953.6,55.1076,-2150.59,0,0
54255.225,54.3516,-2095.82,0,0
55556.85,53.9362,-2043.89,0,0
56858.475,53.8617,-1994.04,0,0
58160.1,54.075,-1946.73,0,0
59461.7,54.6741,-1900.74,0,0
60763.3,56.3148,-1858.26,0,0
62065,58.879,-1820.01,0,0
63366.6,55.4956,-1783.42,0,0
64668.2,52.9841,-1745.08,0,0
65969.8,50.7055,-1705.85,0,0
67271.5,51.4249,-1668.61,0,0
68573.1,53.451,-1634.72,0,0
69874.7,55.8529,-1604.51,0,0
71176.3,52.3615,-1576.3,0,0
72478,47.8344,-1545.73,0,0
73779.6,45.23,-1512.88,0,0
75081.2,45.2774,-1480.47,0,0
76382.825,47.0174,-1450.11,0,0
77684.45,49.8185,-1421.87,0,0
78986.075,53.0603,-1397.7,0,0
80287.7,51.7743,-1376.15,0,0
81589.325,49.2519,-1351.04,0,0
82890.95,48.1378,-1325.32,0,0
84192.575,48.8181,-1300.54,0,0
85494.2,49.5745,-1277,0,0
86795.825,50.6422,-1255.02,0,0
88097.45,51.2279,-1233.82,0,0
89399.075,51.4388,-1212.31,0,0
90700.7,51.4777,-1192.2,0,0
92002.3,53.0861,-1170.99,0,0
93303.9,55.3603,-1152.05,0,0
94605.6,55.4989,-1135.46,0,0
95907.2,54.5927,-1116.06,0,0
97208.8,58.0773,-1098.92,0,0
98510.4,57.7627,-1085.29,0,0
99812.1,53.4456,-1070.55,0,0
101114,50.5448,-1052.98,0,0
102415,46.9413,-1032.81,0,0
103717,46.0969,-1011.7,0,0
105019,49.4493,-991.484,0,0
106320.175,54.1886,-974.415,0,0
107621.8,57.683,-962.519,0,0
108923.425,56.0147,-950.312,0,0
110225.05,52.8358,-934.959,0,0
111526.675,51.6275,-917.128,0,0
112828.3,52.2838,-899.588,0,0
114129.925,54.0326,-882.431,0,0
115431.55,56.8932,-865.941,0,0
116733.175,60.5598,-850.698,0,0
118034.8,64.5828,-836.841,0,0
119336.425,68.1614,-825.132,0,0
120638.05,70.0485,-814.656,0,0
121939.675,69.4457,-803.511,0,0
123241,68.4774,-790.459,0,0
124543,67.832,-776.531,0,0
125845,68.1104,-761.477,0,0
127146,69.7731,-746.362,0,0
128448,72.6472,-732.133,0,0
129749,75.2249,-719.128,0,0
131051,77.6951,-706.076,0,0
132353,79.0583,-693.698,0,0
133654,80.3544,-679.694,0,0
134956,81.8265,-665.547,0,0
136258,84.3165,-650.272,0,0
137559,87.5043,-635.181,0,0
138860.775,90.9987,-620.082,0,0
140162.4,94.4119,-603.956,0,0
141464.025,100.263,-585.145,0,0
142765.65,110.024,-567.634,0,0
144067.275,120.8,-552.372,0,0
145368.9,132.526,-537.359,0,0
146670.525,146.337,-523.48,0,0
147972.15,162.439,-510.41,0,0
149273.775,183.295,-498.936,0,0
150575.4,209.853,-497.101,0,0
151877.025,230.096,-509.412,0,0
153178.65,236.342,-524.186,0,0
154480,233.243,-534.109,0,0
155782,228.263,-535.596,0,0
157084,222.21,-534.028,0,0
158385,218.844,-525.326,0,0
159687,220.844,-518.53,0,0
160988,221.41,-513.044,0,0
162290,228.242,-508.595,0,0
163592,224.387,-514.486,0,0
164893,211.321,-510.676,0,0
166195,198.759,-496.782,0,0
167497,192.094,-477.026,0,0
168798,190.395,-454.771,0,0
170100,192.58,-432.281,0,0
171401.375,197.58,-409.67,0,0
172703.0,206.872,-385.725,0,0
174004.625,219.949,-361.411,0,0
175306.25,240.385,-337.393,0,0
176607.875,267.019,-321.324,0,0
177909.5,294.093,-310.995,0,0
179211.125,316.728,-311.967,0,0
180512.75,325.717,-311.448,0,0
181814.375,331.055,-295.459,0,0
183116.0,348.079,-274.886,0,0
184417.625,373.089,-251.576,0,0
185719.25,408.891,-232.951,0,0
187021,447.394,-221.678,0,0
188322,490.438,-214.079,0,0
189624,531.712,-213.909,0,0
190926,578.051,-209.861,0,0
192227,637.888,-210.757,0,0
193529,711.09,-229.427,0,0
194831,780.683,-278.886,0,0
196132,829.709,-343.647,0,0
197434,865.821,-411.176,0,0
198735,895.372,-491.303,0,0
200037,899.463,-576.169,0,0
201339,888.162,-664.43,0,0
202640.35,849.396,-741.19,0,0
203941.975,796.007,-800.727,0,0
205243.6,741.576,-845.159,0,0
206545.225,676.951,-868.988,0,0
207846.85,625.899,-873.827,0,0
209148.475,590.96,-877.066,0,0
210450.1,553.154,-889.191,0,0
211751.725,507.877,-891.161,0,0
213053.35,470.049,-879.717,0,0
214354.975,440.553,-865.774,0,0
215656.6,416.835,-851.488,0,0
216958.225,398.181,-835.827,0,0
218259.85,384.839,-821.235,0,0
219561,375.364,-807.52,0,0
220863,369.479,-796.747,0,0
222165,366.911,-787.864,0,0
223466,366.5,-785.103,0,0
224768,362.861,-785.129,0,0
226070,357.746,-784.959,0,0
227371,355.393,-785.833,0,0
228673,352.832,-792.478,0,0
229974,343.964,-803.223,0,0
231276,328.542,-811.368,0,0
232578,311.078,-815.588,0,0
233879,292.397,-816.427,0,0
235180.95,274.073,-813.962,0,0
236482.575,256.855,-809.778,0,0
237784.2,239.735,-803.593,0,0
239085.825,224.134,-795.051,0,0
240387.45,210.441,-785.123,0,0
241689.075,198.961,-774.989,0,0
242990.7,188.976,-764.411,0,0
244292.325,180.393,-755.488,0,0
245593.95,171.544,-747.431,0,0
246895.575,160.555,-739.923,0,0
248197.2,148.196,-728.516,0,0
249498.825,138.027,-714.531,0,0
250800,129.851,-698.937,0,0
252102,124.899,-681.876,0,0
253404,123.125,-665.981,0,0
254705,122.553,-650.77,0,0
256007,123.944,-635.135,0,0
257309,128.861,-620.948,0,0
258610,135.037,-609.318,0,0
259912,142.309,-599.1,0,0
261213,151.26,-591.338,0,0
262515,160.403,-586.679,0,0
263817,169.016,-584.969,0,0
265118,175.572,-585.788,0,0
266420,179.198,-587.299,0,0
267721.55,181.491,-588.338,0,0
269023.175,181.812,-588.78,0,0
270324.8,181.729,-586.297,0,0
271626.425,184.896,-581.891,0,0
272928.05,191.552,-578.793,0,0
274229.675,202,-579.392,0,0
275531.3,213.99,-588.281,0,0
276832.925,217.612,-606.578,0,0
278134.55,209.479,-621.974,0,0
279436.175,197.795,-631.475,0,0
280737.8,184.442,-636.764,0,0
282039.425,171.455,-638.694,0,0
283341,156.415,-637.365,0,0
284643,145.424,-631.398,0,0
285944,133.319,-626.942,0,0
287246,120.284,-615.483,0,0
288548,113.32,-598.737,0,0
289849,115.738,-579.795,0,0
291151,127.88,-567.411,0,0
292452,143.095,-567.396,0,0
293754,148.106,-577.369,0,0
295056,144.38,-581.231,0,0
296357,145.665,-581.126,0,0
297659,145.937,-590.312,0,0
298960.525,136.702,-596.224,0,0
300262.15,127.004,-596.745,0,0
301563.775,118.79,-593.294,0,0
302865.4,114.803,-589.879,0,0
304167.025,110.609,-589.704,0,0
305468.65,103.339,-589.552,0,0
306770.275,94.7331,-586.662,0,0
308071.9,86.9862,-581.411,0,0
309373.525,80.8627,-574.96,0,0
310675.15,76.1642,-568.561,0,0
311976.775,72.065,-562.192,0,0
313278.4,68.6006,-555.591,0,0
314580,65.9486,-549.189,0,0
315882,63.7452,-542.907,0,0
317183,61.9575,-536.69,0,0
318485,60.8214,-530.712,0,0
319787,60.0545,-525.358,0,0
321088,59.0395,-520.272,0,0
322390,57.9715,-514.892,0,0
323691,56.9361,-509.262,0,0
324993,56.8253,-502.666,0,0
326295,58.9107,-496.287,0,0
327596,62.2927,-492.52,0,0
328898,64.3533,-490.349,0,0
330200,65.6988,-488.745,0,0
331501.125,66.3287,-487.948,0,0
332802.75,65.5076,-487.465,0,0
334104.375,63.0405,-486.112,0,0
335406.0,60.606,-483.207,0,0
336707.625,58.6984,-479.727,0,0
338009.25,57.0238,-475.753,0,0
339310.875,55.7859,-471.7,0,0
340612.5,55.0234,-467.315,0,0
341914.125,54.7907,-462.9,0,0
343215.75,54.7821,-458.584,0,0
344517.375,55.2813,-454.338,0,0
345819.0,56.2585,-450.351,0,0
347121,57.4248,-446.752,0,0
348422,58.876,-443.529,0,0
349724,60.4367,-440.635,0,0
351025,62.0923,-438.287,0,0
352327,63.514,-436.43,0,0
353629,64.4261,-434.606,0,0
354930,65.4761,-432.674,0,0
356232,66.6745,-430.917,0,0
357534,68.0421,-429.281,0,0
358835,69.7083,-428.378,0,0
360137,70.932,-428.372,0,0
361438,71.2315,-428.723,0,0
362740.1,70.7586,-428.893,0,0
364041.725,69.812,-428.719,0,0
365343.35,68.4668,-428.182,0,0
366644.975,66.9413,-426.916,0,0
367946.6,65.9969,-425.038,0,0
369248.225,65.913,-423.598,0,0
370549.85,65.2725,-423.102,0,0
371851.475,63.8713,-422.146,0,0
373153.1,62.6672,-420.811,0,0
374454.725,61.4722,-419.557,0,0
375756.35,60.0038,-418.337,0,0
377057.975,58.4907,-416.816,0,0
378359.6,57.1274,-415.519,0,0
379661,54.3514,-414.208,0,0
380963,51.9994,-410.47,0,0
382264,52.0379,-407.544,0,0
383566,51.104,-406.141,0,0
384868,49.2209,-404.225,0,0
386169,47.2101,-401.427,0,0
387471,45.7858,-398.019,0,0
388773,44.838,-394.59,0,0
390074,44.5463,-391.078,0,0
391376,44.8232,-388.346,0,0
392677,44.3999,-386.586,0,0
393979,42.9394,-384.233,0,0
395280.7,41.3971,-380.863,0,0
396582.325,40.6777,-376.904,0,0
397883.95,40.634,-372.946,0,0
399185.575,41.0933,-369.232,0,0
400006.6,41.5011,-367.107,0,0