Folder: ML_Dmg_Mehdi_Dataset/Accelerated corrosion test data/2025-10-12_06-00-03

Note: README.md
# ML_Dmg_Mehdi_Dataset

File: sample_1.csv
Frequency (Hz),Impedance (ohms),Phase (Radians),Temperature (C),Humidity (%)
10000.0,239.404,-12194,0,0
11301.625,212.673,-10800.5,0,0
12603.25,193.955,-9701.51,0,0
13904.875,180.659,-8778.61,0,0
15206.5,181.452,-8045.17,0,0
16508.125,154.615,-7422.42,0,0
17809.75,146.698,-6887.68,0,0
19111.375,135.556,-6418.75,0,0
20413.0,153.43,-5976.66,0,0
21714.625,137.014,-5659.8,0,0
23016.25,121.743,-5357.36,0,0
24317.875,112.441,-5064.95,0,0
25619.5,105.044,-4800.74,0,0
26921.1,113.063,-4552.14,0,0
28222.7,109.767,-4348.78,0,0
29524.4,107.08,-4182.92,0,0
30826,100.537,-3995.96,0,0
32127.6,97.7164,-3837.35,0,0
33429.2,88.7642,-3694.65,0,0
34730.9,81.5626,-3552.56,0,0
36032.5,77.7845,-3421.65,0,0
37334.1,75.0437,-3299.35,0,0
38635.7,72.7511,-3185.91,0,0
39937.4,71.108,-3079.41,0,0
41239,71.9302,-2980.54,0,0
42540.6,70.3491,-2888.45,0,0
43842.225,67.8199,-2801.78,0,0
45143.85,68.3527,-2720.34,0,0
46445.475,65.3789,-2643.74,0,0
47747.1,63.7269,-2570.33,0,0
49048.725,61.1904,-2500.18,0,0
50350.35,59.4534,-2433.73,0,0
51651.975,58.6796,-2370.12,0,0
52953.6,57.5459,-2309.22,0,0
54255.225,56.6954,-2252.32,0,0
55556.85,55.8431,-2196.87,0,0
56858.475,54.7717,-2143.92,0,0
58160.1,54.4976,-2093.39,0,0
59461.7,54.3872,-2045.59,0,0
60763.3,54.4096,-1999.53,0,0
62065,53.1531,-1955.74,0,0
63366.6,52.4639,-1912.28,0,0
64668.2,52.8835,-1870.21,0,0
65969.8,54.9312,-1832.24,0,0
67271.5,53.6842,-1796.07,0,0
68573.1,53.1839,-1760.4,0,0
69874.7,52.112,-1726.52,0,0
71176.3,50.3485,-1691.76,0,0
72478,48.438,-1658.23,0,0
73779.6,48.071,-1624.76,0,0
75081.2,48.5598,-1592.61,0,0
76382.825,49.2604,-1561.52,0,0
77684.45,50.2229,-1532.22,0,0
78986.075,51.8612,-1504.62,0,0
80287.7,51.1981,-1478.2,0,0
81589.325,50.6378,-1450.4,0,0
82890.95,51.26,-1423.52,0,0
84192.575,52.8009,-1397.53,0,0
85494.2,54.9299,-1372.72,0,0
86795.825,56.0834,-1349.76,0,0
88097.45,56.2969,-1326.59,0,0
89399.075,58.0968,-1301.83,0,0
90700.7,61.4144,-1278.66,0,0
92002.3,67.8812,-1257.72,0,0
93303.9,75.1559,-1240.8,0,0
94605.6,73.6076,-1233.73,0,0
95907.2,66.9662,-1214.95,0,0
97208.8,64.7079,-1194.42,0,0
98510.4,64.2065,-1173.67,0,0
99812.1,63.2135,-1154.11,0,0
101114,63.37,-1134.06,0,0
102415,63.2934,-1112.71,0,0
103717,68.2819,-1091.32,0,0
105019,75.1519,-1073.94,0,0
106320.175,81.3169,-1057.61,0,0
107621.8,87.8201,-1045.28,0,0
108923.425,92.3817,-1034.67,0,0
110225.05,94.0981,-1026.59,0,0
111526.675,93.9706,-1014.09,0,0
112828.3,96.0659,-1004.49,0,0
114129.925,95.028,-996.646,0,0
115431.55,91.2315,-986.831,0,0
116733.175,86.3859,-974.35,0,0
118034.8,82.5129,-959.821,0,0
119336.425,81.0468,-944.208,0,0
120638.05,81.499,-930.053,0,0
121939.675,80.4587,-917.442,0,0
123241,79.1775,-903.105,0,0
124543,78.8196,-888.102,0,0
125845,79.6785,-873.382,0,0
127146,81.0048,-859.101,0,0
128448,82.9224,-844.665,0,0
129749,85.5398,-830.67,0,0
131051,90.5169,-817.48,0,0
132353,94.6646,-807.203,0,0
133654,97.3222,-796.753,0,0
134956,99.8178,-786.261,0,0
136258,102.663,-775.135,0,0
137559,107.58,-765.474,0,0
138860.775,109.656,-759.209,0,0
140162.4,109.618,-750.5,0,0
141464.025,109.473,-740.473,0,0
142765.65,110.168,-729.655,0,0
144067.275,111.272,-718.209,0,0
145368.9,114.116,-706.904,0,0
146670.525,116.768,-697.154,0,0
147972.15,119.132,-687.839,0,0
149273.775,121.301,-677.239,0,0
150575.4,123.027,-669.244,0,0
151877.025,121.743,-657.649,0,0
153178.65,121.794,-642.955,0,0
154480,125.752,-626.219,0,0
155782,133.385,-609.662,0,0
157084,145.305,-594.906,0,0
158385,158.142,-585.499,0,0
159687,168.348,-575.085,0,0
160988,186.25,-564.574,0,0
162290,205.269,-564.966,0,0
163592,216.588,-567.36,0,0
164893,228.27,-569.813,0,0
166195,240.242,-575.837,0,0
167497,245.853,-587.417,0,0
168798,244.308,-598.827,0,0
170100,234.938,-604.845,0,0
171401.375,226.9,-602.158,0,0
172703.0,222.352,-597.64,0,0
174004.625,218.767,-592.202,0,0
175306.25,217.763,-586.532,0,0
176607.875,218.205,-582.545,0,0
177909.5,217.307,-579.809,0,0
179211.125,213.055,-578.581,0,0
180512.75,206.774,-574.75,0,0
181814.375,199.099,-566.577,0,0
183116.0,192.909,-556.221,0,0
184417.625,187.23,-542.307,0,0
185719.25,185.753,-525.388,0,0
187021,187.692,-509.773,0,0
188322,191.48,-495.204,0,0
189624,195.11,-480.958,0,0
190926,199.808,-465.455,0,0
192227,205.657,-449.068,0,0
193529,214.496,-432.141,0,0
194831,224.95,-415.476,0,0
196132,238.201,-398.129,0,0
197434,254.348,-380.273,0,0
198735,275.063,-363.881,0,0
200037,296.724,-350.316,0,0
201339,322.232,-333.794,0,0
202640.35,357.79,-318.754,0,0
203941.975,400.941,-313.475,0,0
205243.6,452.878,-321.141,0,0
206545.225,496.768,-350.644,0,0
207846.85,525.417,-389.809,0,0
209148.475,538.392,-429.055,0,0
210450.1,536.905,-464.582,0,0
211751.725,527.233,-482.53,0,0
213053.35,525.338,-487.151,0,0
214354.975,537.722,-495.817,0,0
215656.6,548.698,-510.145,0,0
216958.225,556.616,-526.103,0,0
218259.85,570.226,-538.523,0,0
219561,586.352,-557.489,0,0
220863,605.058,-583.857,0,0
222165,622.884,-621.547,0,0
223466,627.89,-671.447,0,0
224768,617.517,-720.789,0,0
226070,596.622,-767.344,0,0
227371,565.019,-809.826,0,0
228673,521.097,-842.325,0,0
229974,473.379,-858.324,0,0
231276,430.177,-861.771,0,0
232578,394.49,-857.322,0,0
233879,366.792,-851.408,0,0
235180.95,341.802,-846.801,0,0
236482.575,317.427,-841.413,0,0
237784.2,293.964,-833.976,0,0
239085.825,273.138,-824.65,0,0
240387.45,253.691,-813.917,0,0
241689.075,237.073,-802.626,0,0
242990.7,222.543,-790.297,0,0
244292.325,210.042,-778.683,0,0
245593.95,198.192,-767.706,0,0
246895.575,186.701,-756.192,0,0
248197.2,176.713,-743.472,0,0
249498.825,168.505,-730.953,0,0
250800,161.519,-718.781,0,0
252102,155.207,-706.795,0,0
253404,149.655,-694.303,0,0
254705,145.697,-681.438,0,0
256007,143.704,-669.179,0,0
257309,142.357,-657.618,0,0
258610,141.909,-646.123,0,0
259912,143.638,-634.451,0,0
261213,147.749,-624.613,0,0
262515,152.874,-617.174,0,0
263817,158.414,-612.016,0,0
265118,164.237,-608.855,0,0
266420,170.962,-609.541,0,0
267721.55,173.396,-615.815,0,0
269023.175,168.527,-622.174,0,0
270324.8,158.475,-623.435,0,0
271626.425,148.718,-618.517,0,0
272928.05,142.179,-609.956,0,0
274229.675,139.866,-600.558,0,0
275531.3,139.853,-593.08,0,0
276832.925,140.676,-586.654,0,0
278134.55,142.975,-581.719,0,0
279436.175,144.755,-579.01,0,0
280737.8,145.549,-577.653,0,0
282039.425,144.764,-577.152,0,0
283341,141.711,-575.878,0,0
284643,137.878,-572.799,0,0
285944,134.774,-568.411,0,0
287246,131.324,-563.105,0,0
288548,129.336,-555.386,0,0
289849,131.263,-547.796,0,0
291151,134.216,-543.473,0,0
292452,135.982,-540.983,0,0
293754,135.113,-538.63,0,0
295056,133.558,-532.598,0,0
296357,136.188,-524.983,0,0
297659,141.24,-520.213,0,0
298960.525,146.053,-516.755,0,0
300262.15,151.403,-514.456,0,0
301563.775,157.146,-512.898,0,0
302865.4,164.238,-513.636,0,0
304167.025,169.835,-517.312,0,0
305468.65,173.675,-521.846,0,0
306770.275,176.794,-527.147,0,0
308071.9,178.035,-534.357,0,0
309373.525,176.337,-541.263,0,0
310675.15,173.907,-546.914,0,0
311976.775,170.154,-553.584,0,0
313278.4,163.443,-559.491,0,0
314580,155.077,-562.568,0,0
315882,147.343,-563.642,0,0
317183,139.581,-564.032,0,0
318485,131.659,-563.121,0,0
319787,123.899,-560.753,0,0
321088,116.725,-556.975,0,0
322390,110.898,-552.27,0,0
323691,106.211,-546.889,0,0
324993,103.169,-541.434,0,0
326295,101.403,-536.833,0,0
327596,99.8254,-533.214,0,0
328898,98.5806,-530.401,0,0
330200,97.0049,-528.405,0,0
331501.125,94.6791,-526.925,0,0
332802.75,91.4404,-525.237,0,0
334104.375,87.9488,-522.993,0,0
335406.0,84.1883,-520.206,0,0
336707.625,80.5601,-516.853,0,0
338009.25,77.1883,-513.02,0,0
339310.875,74.2108,-508.966,0,0
340612.5,71.5988,-504.754,0,0
341914.125,69.3931,-500.716,0,0
343215.75,67.2049,-496.593,0,0
344517.375,65.1074,-492.516,0,0
345819.0,63.0467,-488.309,0,0
347121,61.2686,-483.703,0,0
348422,59.7957,-479.042,0,0
349724,58.8438,-474.34,0,0
351025,58.2249,-469.911,0,0
352327,57.7766,-465.615,0,0
353629,57.4339,-461.543,0,0
354930,57.1092,-457.567,0,0
356232,56.8977,-453.446,0,0
357534,56.9927,-449.546,0,0
358835,57.0981,-445.876,0,0
360137,57.27,-442.232,0,0
361438,57.6051,-438.648,0,0
362740.1,57.8384,-435.265,0,0
364041.725,58.2289,-431.725,0,0
365343.35,58.7874,-428.33,0,0
366644.975,59.1744,-425.017,0,0
367946.6,59.4659,-421.473,0,0
369248.225,59.9605,-417.227,0,0
370549.85,61.7583,-412.528,0,0
371851.475,64.8066,-408.699,0,0
373153.1,68.3707,-406.135,0,0
374454.725,71.836,-404.745,0,0
375756.35,74.6401,-404.354,0,0
377057.975,76.6638,-404.289,0,0
378359.6,78.3833,-404.219,0,0
379661,79.7103,-404.428,0,0
380963,81.12,-404.463,0,0
382264,82.8214,-405.97,0,0
383566,82.5683,-408.302,0,0
384868,80.7974,-410.117,0,0
386169,78.1397,-410.854,0,0
387471,75.0212,-410.481,0,0
388773,72.2312,-408.734,0,0
390074,70.4486,-406.658,0,0
391376,69.0494,-404.942,0,0
392677,67.4559,-403.439,0,0
393979,65.4211,-401.835,0,0
395280.7,63.0968,-399.555,0,0
396582.325,61.0427,-396.481,0,0
397883.95,59.6047,-393.107,0,0
399185.575,58.5414,-389.782,0,0
400006.6,58.0063,-387.588,0,0

File: sample_2.csv
Frequency (Hz),Impedance (ohms),Phase (Radians),Temperature (C),Humidity (%)
10000.0,234.256,-11403.1,0,0
11301.625,207.754,-10099.3,0,0
12603.25,186.61,-9067.26,0,0
13904.875,187.806,-8220.25,0,0
15206.5,167.661,-7532.9,0,0
16508.125,145.885,-6942.04,0,0
17809.75,135.53,-6435.52,0,0
19111.375,130.368,-5996.64,0,0
20413.0,119.944,-5614.71,0,0
21714.625,129.199,-5285.95,0,0
23016.25,114.041,-4990.67,0,0
24317.875,104.743,-4725.92,0,0
25619.5,98.9566,-4482.5,0,0
26921.1,95.8065,-4264.79,0,0
28222.7,91.3832,-4066.07,0,0
29524.4,93.9362,-3882.6,0,0
30826,88.9485,-3728.51,0,0
32127.6,82.99,-3575.1,0,0
33429.2,80.5308,-3436.84,0,0
34730.9,76.3981,-3306.46,0,0
36032.5,73.8801,-3185.39,0,0
37334.1,71.7834,-3072.05,0,0
38635.7,69.432,-2967.28,0,0
39937.4,67.7365,-2868.58,0,0
41239,66.1202,-2775.81,0,0
42540.6,64.9494,-2689.49,0,0
43842.225,63.6989,-2607.77,0,0
45143.85,62.4088,-2530.22,0,0
46445.475,61.9618,-2457.86,0,0
47747.1,60.9325,-2388.92,0,0
49048.725,60.8156,-2324.91,0,0
50350.35,58.28,-2262.99,0,0
51651.975,56.9402,-2203.93,0,0
52953.6,55.5996,-2146.89,0,0
54255.225,54.7571,-2092.23,0,0
55556.85,54.28,-2040.39,0,0
56858.475,54.1438,-1990.72,0,0
58160.1,54.4793,-1943.5,0,0
59461.7,54.8345,-1897.55,0,0
60763.3,56.5293,-1855.24,0,0
62065,59.1915,-1816.73,0,0
63366.6,56.0273,-1780.51,0,0
64668.2,53.1173,-1741.98,0,0
65969.8,50.8519,-1702.98,0,0
67271.5,51.4185,-1665.86,0,0
68573.1,53.8777,-1632.17,0,0
69874.7,56.1354,-1601.46,0,0
71176.3,52.7862,-1573.7,0,0
72478,48.0667,-1543.19,0,0
73779.6,45.6024,-1510.46,0,0
75081.2,45.4829,-1478.17,0,0
76382.825,47.0796,-1447.83,0,0
77684.45,49.8878,-1419.57,0,0
78986.075,53.2067,-1395.27,0,0
80287.7,52.0371,-1373.98,0,0
81589.325,49.4562,-1348.87,0,0
82890.95,48.3552,-1323.28,0,0
84192.575,48.983,-1298.47,0,0
85494.2,49.7454,-1275.07,0,0
86795.825,50.8396,-1253.13,0,0
88097.45,51.3441,-1231.91,0,0
89399.075,51.4444,-1210.42,0,0
90700.7,51.8053,-1190.38,0,0
92002.3,52.9839,-1169.29,0,0
93303.9,55.4885,-1150.24,0,0
94605.6,55.4907,-1133.72,0,0
95907.2,54.6637,-1114.61,0,0
97208.8,57.9209,-1097.09,0,0
98510.4,57.9056,-1083.48,0,0
99812.1,53.7916,-1069.3,0,0
101114,50.6879,-1051.35,0,0
102415,47.1474,-1031.46,0,0
103717,46.3389,-1010.54,0,0
105019,49.5089,-989.943,0,0
106320.175,54.4129,-973.104,0,0
107621.8,57.6952,-960.961,0,0
108923.425,56.2655,-948.825,0,0
110225.05,53.1987,-933.74,0,0
111526.675,51.9259,-915.946,0,0
112828.3,52.4421,-898.529,0,0
114129.925,54.2055,-881.462,0,0
115431.55,56.9681,-865.063,0,0
116733.175,60.5312,-849.778,0,0
118034.8,64.4579,-835.91,0,0
119336.425,68.1761,-824.196,0,0
120638.05,70.1558,-813.838,0,0
121939.675,69.3203,-802.645,0,0
123241,68.3727,-789.688,0,0
124543,67.6676,-775.769,0,0
125845,67.9309,-760.704,0,0
127146,69.5236,-745.619,0,0
128448,72.3942,-731.297,0,0
129749,75.1439,-718.27,0,0
131051,77.4704,-705.306,0,0
132353,79.0676,-692.927,0,0
133654,80.1788,-679.042,0,0
134956,81.8139,-664.821,0,0
136258,84.2621,-649.646,0,0
137559,87.4546,-634.574,0,0
138860.775,91.0767,-619.554,0,0
140162.4,94.7216,-603.66,0,0
141464.025,100.199,-585.134,0,0
142765.65,109.826,-567.378,0,0
144067.275,121.081,-552.362,0,0
145368.9,132.612,-538.048,0,0
146670.525,145.66,-524.306,0,0
147972.15,161.674,-511.243,0,0
149273.775,181.456,-499.901,0,0
150575.4,207.676,-497.15,0,0
151877.025,228.643,-508.86,0,0
153178.65,234.634,-523.537,0,0
154480,232.122,-533.38,0,0
155782,227.162,-535.186,0,0
157084,221.27,-533.408,0,0
158385,217.245,-525.36,0,0
159687,218.749,-517.96,0,0
160988,219.781,-512.664,0,0
162290,224.774,-507.623,0,0
163592,222.95,-512.05,0,0
164893,210.539,-508.534,0,0
166195,198.396,-495.518,0,0
167497,191.146,-475.567,0,0
168798,189.591,-452.883,0,0
170100,192.741,-431.297,0,0
171401.375,197.038,-409.294,0,0
172703.0,205.984,-385.076,0,0
174004.625,219.023,-360.233,0,0
175306.25,239.922,-335.863,0,0
176607.875,267.325,-320.391,0,0
177909.5,292.832,-310.213,0,0
179211.125,315.243,-311.063,0,0
180512.75,324.705,-309.879,0,0
181814.375,329.638,-294.277,0,0
183116.0,347.876,-272.025,0,0
184417.625,373.859,-248.659,0,0
185719.25,410.302,-229.601,0,0
187021,450.598,-220.467,0,0
188322,492.677,-213.49,0,0
189624,535.656,-214.411,0,0
190926,580.99,-212.083,0,0
192227,639.231,-213.846,0,0
193529,710.64,-232.4,0,0
194831,778.963,-280.638,0,0
196132,829.778,-344.85,0,0
197434,865.432,-413.579,0,0
198735,894.439,-492.702,0,0
200037,898.089,-577.296,0,0
201339,888.414,-664.578,0,0
202640.35,849.302,-744.6,0,0
203941.975,793.873,-804.6,0,0
205243.6,739.293,-846.169,0,0
206545.225,675.824,-872.131,0,0
207846.85,623.801,-877.443,0,0
209148.475,587.504,-881.256,0,0
210450.1,548.79,-892.247,0,0
211751.725,503.135,-893.206,0,0
213053.35,465.431,-881.675,0,0
214354.975,434.612,-867.312,0,0
215656.6,411.127,-851.978,0,0
216958.225,392.402,-835.777,0,0
218259.85,379.028,-820.15,0,0
219561,370.081,-806.252,0,0
220863,364.353,-795.554,0,0
222165,360.973,-786.312,0,0
223466,360.592,-781.985,0,0
224768,357.815,-781.76,0,0
226070,352.675,-781.49,0,0
227371,350.095,-781.402,0,0
228673,348.425,-786.646,0,0
229974,341.319,-797.094,0,0
231276,326.933,-805.897,0,0
232578,309.958,-810.341,0,0
233879,291.914,-811.321,0,0
235180.95,274.384,-809.472,0,0
236482.575,257.552,-805.838,0,0
237784.2,240.628,-800.443,0,0
239085.825,224.855,-792.581,0,0
240387.45,210.914,-782.89,0,0
241689.075,199.353,-772.769,0,0
242990.7,189.335,-762.446,0,0
244292.325,180.838,-753.766,0,0
245593.95,171.767,-745.929,0,0
246895.575,160.967,-738.441,0,0
248197.2,148.481,-727.44,0,0
249498.825,138.101,-713.822,0,0
250800,129.754,-698.483,0,0
252102,124.347,-681.633,0,0
253404,122.204,-665.595,0,0
254705,121.357,-650.355,0,0
256007,122.423,-634.784,0,0
257309,126.887,-620.314,0,0
258610,132.768,-608.214,0,0
259912,139.933,-597.523,0,0
261213,148.926,-589.17,0,0
262515,158.354,-584.1,0,0
263817,167.197,-581.755,0,0
265118,174.702,-582.296,0,0
266420,178.927,-584.038,0,0
267721.55,181.88,-585.07,0,0
269023.175,183.003,-586.179,0,0
270324.8,183.186,-584.574,0,0
271626.425,185.973,-581.039,0,0
272928.05,192.219,-578.615,0,0
274229.675,201.957,-579.401,0,0
275531.3,213.397,-588.059,0,0
276832.925,217.114,-606.256,0,0
278134.55,208.442,-621.995,0,0
279436.175,196.307,-631.077,0,0
280737.8,182.755,-636.005,0,0
282039.425,169.693,-637.556,0,0
283341,154.852,-635.903,0,0
284643,143.985,-629.649,0,0
285944,132.212,-625.306,0,0
287246,119.045,-614.061,0,0
288548,112.294,-597.204,0,0
289849,114.155,-578.479,0,0
291151,126.123,-565.773,0,0
292452,140.877,-564.911,0,0
293754,147.122,-574.3,0,0
295056,143.605,-578.473,0,0
296357,145.525,-578.445,0,0
297659,145.782,-588.056,0,0
298960.525,136.532,-593.82,0,0
300262.15,127.36,-594.494,0,0
301563.775,118.844,-591.688,0,0
302865.4,114.587,-587.78,0,0
304167.025,111.076,-587.484,0,0
305468.65,104.014,-587.964,0,0
306770.275,95.1544,-585.46,0,0
308071.9,87.1707,-580.202,0,0
309373.525,81.0551,-573.784,0,0
310675.15,76.3307,-567.54,0,0
311976.775,71.9839,-561.241,0,0
313278.4,68.4688,-554.573,0,0
314580,65.8413,-548.27,0,0
315882,63.3718,-542.121,0,0
317183,61.4479,-535.737,0,0
318485,60.2982,-529.601,0,0
319787,59.4142,-524.109,0,0
321088,58.4349,-518.815,0,0
322390,57.5964,-513.423,0,0
323691,56.6505,-507.78,0,0
324993,56.5907,-501.317,0,0
326295,58.592,-494.917,0,0
327596,62.0364,-490.946,0,0
328898,64.1235,-488.785,0,0
330200,65.6789,-487.155,0,0
331501.125,66.4134,-486.415,0,0
332802.75,65.6763,-486.15,0,0
334104.375,63.3003,-484.911,0,0
335406.0,60.855,-482.124,0,0
336707.625,58.8609,-478.718,0,0
338009.25,57.1877,-474.922,0,0
339310.875,55.9006,-470.872,0,0
340612.5,54.9446,-466.639,0,0
341914.125,54.5933,-462.284,0,0
343215.75,54.5168,-458.002,0,0
344517.375,54.8074,-453.81,0,0
345819.0,55.5828,-449.625,0,0
347121,56.7521,-445.873,0,0
348422,58.1507,-442.519,0,0
349724,59.7294,-439.532,0,0
351025,61.3623,-437.149,0,0
352327,62.7102,-435.158,0,0
353629,63.7223,-433.157,0,0
354930,64.8711,-431.19,0,0
356232,66.0867,-429.303,0,0
357534,67.5902,-427.675,0,0
358835,69.3162,-426.686,0,0
360137,70.6979,-426.602,0,0
361438,71.11,-426.87,0,0
362740.1,70.8247,-427.012,0,0
364041.725,69.9813,-426.927,0,0
365343.35,68.8826,-426.354,0,0
366644.975,67.5678,-425.369,0,0
367946.6,66.5398,-423.666,0,0
369248.225,66.3116,-422.26,0,0
370549.85,65.851,-421.539,0,0
371851.475,64.6154,-420.933,0,0
373153.1,63.3217,-419.733,0,0
374454.725,62.2052,-418.535,0,0
375756.35,60.7484,-417.527,0,0
377057.975,59.1,-416.082,0,0
378359.6,57.6161,-414.838,0,0
379661,54.9264,-413.5,0,0
380963,52.5556,-409.922,0,0
382264,52.5434,-407.056,0,0
383566,51.4807,-405.726,0,0
384868,49.4935,-403.82,0,0
386169,47.5072,-401.059,0,0
387471,45.9537,-397.705,0,0
388773,44.9216,-394.189,0,0
390074,44.6061,-390.682,0,0
391376,44.8409,-387.972,0,0
392677,44.3664,-386.187,0,0
393979,42.8128,-383.821,0,0
395280.7,41.2975,-380.414,0,0
396582.325,40.5314,-376.354,0,0
397883.95,40.4687,-372.389,0,0
399185.575,40.9331,-368.651,0,0
400006.6,41.3165,-366.523,0,0