Folder: ML_Dmg_Mehdi_Dataset/Accelerated corrosion test data/2025-10-04_06-00-03 (part 3)

File: sample_6.csv
Frequency (Hz),Impedance (ohms),Phase (Radians),Temperature (C),Humidity (%)
10000.0,4281.27,-6436.9,0,0
11301.625,3653.77,-6081.32,0,0
12603.25,3151.65,-5736.22,0,0
13904.875,2744.03,-5417.64,0,0
15206.5,2409.67,-5117.77,0,0
16508.125,2132.14,-4841.99,0,0
17809.75,1900.23,-4589.55,0,0
19111.375,1707.18,-4356.11,0,0
20413.0,1538.89,-4145.42,0,0
21714.625,1396.06,-3947.9,0,0
23016.25,1277.02,-3762.19,0,0
24317.875,1169.57,-3605.38,0,0
25619.5,1074.72,-3451.93,0,0
26921.1,991.103,-3308.03,0,0
28222.7,920.449,-3177.64,0,0
29524.4,855.269,-3052.6,0,0
30826,799.39,-2939.07,0,0
32127.6,749.02,-2829.36,0,0
33429.2,709.096,-2729.58,0,0
34730.9,668.883,-2641.15,0,0
36032.5,633.504,-2558.89,0,0
37334.1,595.656,-2479.76,0,0
38635.7,561.042,-2401.8,0,0
39937.4,532.039,-2326.5,0,0
41239,505.08,-2256.15,0,0
42540.6,482.287,-2190.69,0,0
43842.225,461.705,-2124.06,0,0
45143.85,445.263,-2061.82,0,0
46445.475,434.669,-2007.37,0,0
47747.1,422.761,-1958.29,0,0
49048.725,413.08,-1915.49,0,0
50350.35,393.921,-1881.35,0,0
51651.975,370.329,-1838.32,0,0
52953.6,353.205,-1793.86,0,0
54255.225,335.21,-1751.89,0,0
55556.85,318.998,-1709.94,0,0
56858.475,306.383,-1663.73,0,0
58160.1,301.398,-1625.46,0,0
59461.7,292.461,-1593.02,0,0
60763.3,279.988,-1560.1,0,0
62065,266.757,-1524.48,0,0
63366.6,262.441,-1486.72,0,0
64668.2,255.925,-1461.46,0,0
65969.8,246.634,-1431.19,0,0
67271.5,235.509,-1402.71,0,0
68573.1,226.103,-1370.23,0,0
69874.7,219.354,-1337.77,0,0
71176.3,215.835,-1306.1,0,0
72478,214.667,-1277.04,0,0
73779.6,214.794,-1251.55,0,0
75081.2,213.343,-1227.84,0,0
76382.825,212.229,-1205.43,0,0
77684.45,210.851,-1183.56,0,0
78986.075,210.047,-1163.58,0,0
80287.7,208.268,-1145.26,0,0
81589.325,205.08,-1127.49,0,0
82890.95,201.076,-1109.48,0,0
84192.575,196.505,-1090.66,0,0
85494.2,193.194,-1070.43,0,0
86795.825,191.804,-1051.33,0,0
88097.45,190.142,-1033.54,0,0
89399.075,189.173,-1015.74,0,0
90700.7,189.002,-999.604,0,0
92002.3,186.737,-984.673,0,0
93303.9,185.225,-968.41,0,0
94605.6,185.133,-950.55,0,0
95907.2,186.874,-936.902,0,0
97208.8,186.357,-925.335,0,0
98510.4,184.498,-909.357,0,0
99812.1,190.461,-897.521,0,0
101114,189.653,-892.749,0,0
102415,185.661,-882.658,0,0
103717,181.472,-876.599,0,0
105019,169.113,-868.394,0,0
106320.175,156.431,-848.446,0,0
107621.8,153.519,-825.175,0,0
108923.425,156.531,-806.51,0,0
110225.05,158.937,-790.625,0,0
111526.675,161.842,-775.512,0,0
112828.3,166.239,-762.437,0,0
114129.925,171.439,-750.944,0,0
115431.55,174.753,-741.842,0,0
116733.175,179.152,-734.209,0,0
118034.8,178.124,-728.718,0,0
119336.425,177.55,-716.752,0,0
120638.05,184.359,-705.301,0,0
121939.675,188.027,-706.695,0,0
123241,182.947,-702.42,0,0
124543,179.476,-695.752,0,0
125845,175.202,-687.678,0,0
127146,170.878,-678.271,0,0
128448,169.165,-665.559,0,0
129749,171.384,-656.683,0,0
131051,171.135,-650.679,0,0
132353,169.138,-644.813,0,0
133654,164.994,-638.744,0,0
134956,159.251,-630.233,0,0
136258,153.68,-619.329,0,0
137559,149.515,-606.88,0,0
138860.775,146.879,-593.491,0,0
140162.4,145.725,-579.822,0,0
141464.025,146.188,-566.289,0,0
142765.65,147.176,-554.052,0,0
144067.275,149.214,-541.006,0,0
145368.9,153.134,-530.526,0,0
146670.525,154.338,-522.031,0,0
147972.15,153.968,-512.19,0,0
149273.775,153.376,-499.957,0,0
150575.4,153.781,-485.796,0,0
151877.025,157.353,-469.362,0,0
153178.65,167.704,-455.851,0,0
154480,174.541,-449.286,0,0
155782,179.392,-438.443,0,0
157084,189.387,-430.23,0,0
158385,194.855,-427.512,0,0
159687,196.563,-422.316,0,0
160988,198.575,-415.453,0,0
162290,200.226,-408.653,0,0
163592,200.914,-399.912,0,0
164893,200.737,-390.297,0,0
166195,202.752,-377.381,0,0
167497,206.49,-365.847,0,0
168798,210.543,-353.654,0,0
170100,215.674,-341.953,0,0
171401.375,220.13,-329.98,0,0
172703.0,225.26,-317.198,0,0
174004.625,230.067,-303.84,0,0
175306.25,235.101,-287.918,0,0
176607.875,242.387,-269.709,0,0
177909.5,252.952,-249.688,0,0
179211.125,267.67,-228.535,0,0
180512.75,288.312,-209.355,0,0
181814.375,311.697,-194.283,0,0
183116.0,335.759,-183.656,0,0
184417.625,359.401,-174.761,0,0
185719.25,381.677,-170.135,0,0
187021,397.256,-165.033,0,0
188322,408.981,-150.005,0,0
189624,428.148,-123.214,0,0
190926,464.069,-89.3754,0,0
192227,519.626,-63.1229,0,0
193529,584.1,-47.8554,0,0
194831,663.423,-44.8906,0,0
196132,747.948,-65.0311,0,0
197434,830,-106.068,0,0
198735,905.193,-162.968,0,0
200037,974.234,-239.802,0,0
201339,1030.35,-336.161,0,0
202640.35,1062.84,-458.635,0,0
203941.975,1048.78,-585.226,0,0
205243.6,1003.6,-691.762,0,0
206545.225,938.798,-776.287,0,0
207846.85,866.472,-834.498,0,0
209148.475,797.461,-872.004,0,0
210450.1,736.738,-898.521,0,0
211751.725,678.313,-924.559,0,0
213053.35,610.18,-941.445,0,0
214354.975,544.665,-940.758,0,0
215656.6,488.198,-928.645,0,0
216958.225,441.66,-911.214,0,0
218259.85,402.418,-891.534,0,0
219561,369.481,-870.562,0,0
220863,341.753,-848.977,0,0
222165,318.042,-826.81,0,0
223466,298.494,-803.843,0,0
224768,284.292,-780.026,0,0
226070,276.113,-757.622,0,0
227371,273.914,-739.708,0,0
228673,272.948,-729.747,0,0
229974,267.355,-724.747,0,0
231276,256.675,-718.278,0,0
232578,244.675,-708.115,0,0
233879,234.402,-694.79,0,0
235180.95,226.93,-680.157,0,0
236482.575,222.312,-665.696,0,0
237784.2,219.488,-651.754,0,0
239085.825,218.361,-638.672,0,0
240387.45,218.531,-626.301,0,0
241689.075,219.801,-614.703,0,0
242990.7,222.114,-603.628,0,0
244292.325,225.936,-593.055,0,0
245593.95,231.281,-583.093,0,0
246895.575,238.846,-573.598,0,0
248197.2,249.922,-566.307,0,0
249498.825,262.545,-563.856,0,0
250800,273.328,-564.255,0,0
252102,286.482,-565.248,0,0
253404,302.789,-573.009,0,0
254705,316.107,-590.208,0,0
256007,320.383,-613.512,0,0
257309,314.986,-636.587,0,0
258610,302.369,-655.904,0,0
259912,285.202,-670.204,0,0
261213,265.822,-678.917,0,0
262515,246.347,-682.293,0,0
263817,228.549,-681.946,0,0
265118,212.485,-679.304,0,0
266420,198.002,-674.792,0,0
267721.55,185.212,-669.128,0,0
269023.175,173.869,-662.922,0,0
270324.8,163.724,-656.416,0,0
271626.425,154.433,-649.512,0,0
272928.05,146.007,-642.414,0,0
274229.675,138.248,-635.095,0,0
275531.3,131.314,-627.473,0,0
276832.925,125.18,-619.726,0,0
278134.55,119.72,-611.907,0,0
279436.175,115.004,-603.835,0,0
280737.8,111.605,-595.709,0,0
282039.425,109.26,-588.701,0,0
283341,106.721,-582.427,0,0
284643,104.365,-576.089,0,0
285944,102.66,-570.126,0,0
287246,101.143,-565.099,0,0
288548,98.9774,-560.188,0,0
289849,97.1428,-555.051,0,0
291151,95.6728,-550.301,0,0
292452,94.2896,-545.948,0,0
293754,92.7642,-542.228,0,0
295056,90.5021,-538.831,0,0
296357,87.4565,-534.798,0,0
297659,84.3838,-529.654,0,0
298960.525,82.6408,-523.61,0,0
300262.15,82.1792,-518.349,0,0
301563.775,81.797,-514.047,0,0
302865.4,81.1051,-510.231,0,0
304167.025,80.118,-506.366,0,0
305468.65,79.3472,-502.111,0,0
306770.275,79.555,-498.38,0,0
308071.9,79.4797,-495.876,0,0
309373.525,78.3982,-493.457,0,0
310675.15,77.2201,-490.89,0,0
311976.775,75.7189,-488.208,0,0
313278.4,74.097,-485.41,0,0
314580,72.3467,-482.28,0,0
315882,70.8608,-479.042,0,0
317183,69.4864,-475.942,0,0
318485,67.9855,-472.838,0,0
319787,66.3831,-469.603,0,0
321088,64.7781,-466.147,0,0
322390,63.5219,-462.502,0,0
323691,62.463,-459.077,0,0
324993,61.4432,-455.741,0,0
326295,60.3441,-452.407,0,0
327596,59.2647,-449.009,0,0
328898,58.3739,-445.569,0,0
330200,57.4566,-442.222,0,0
331501.125,56.6611,-438.816,0,0
332802.75,55.8942,-435.424,0,0
334104.375,55.2846,-432.014,0,0
335406.0,54.7745,-428.607,0,0
336707.625,54.4567,-425.416,0,0
338009.25,54.0912,-422.264,0,0
339310.875,53.687,-419.119,0,0
340612.5,53.4216,-416.024,0,0
341914.125,53.3257,-412.857,0,0
343215.75,53.496,-409.956,0,0
344517.375,53.5546,-407.72,0,0
345819.0,52.8651,-405.408,0,0
347121,52.1678,-402.576,0,0
348422,51.7538,-399.611,0,0
349724,51.49,-396.67,0,0
351025,51.3448,-393.813,0,0
352327,51.3035,-391.027,0,0
353629,51.3832,-388.378,0,0
354930,51.3252,-385.947,0,0
356232,51.196,-383.421,0,0
357534,51.1166,-380.788,0,0
358835,51.2617,-378.299,0,0
360137,51.4343,-376.114,0,0
361438,51.3896,-373.981,0,0
362740.1,51.0533,-371.876,0,0
364041.725,50.7577,-369.602,0,0
365343.35,50.4561,-367.235,0,0
366644.975,50.2421,-364.794,0,0
367946.6,50.1049,-362.381,0,0
369248.225,49.9734,-359.972,0,0
370549.85,49.998,-357.543,0,0
371851.475,50.129,-355.144,0,0
373153.1,50.4685,-352.986,0,0
374454.725,50.6427,-351.312,0,0
375756.35,50.2764,-349.715,0,0
377057.975,49.7407,-347.712,0,0
378359.6,49.2046,-345.621,0,0
379661,48.6022,-343.417,0,0
380963,47.9188,-340.885,0,0
382264,47.5812,-338.024,0,0
383566,47.8887,-335.335,0,0
384868,47.9524,-333.347,0,0
386169,47.5345,-331.156,0,0
387471,47.1731,-328.729,0,0
388773,46.8687,-326.156,0,0
390074,46.683,-323.54,0,0
391376,46.5855,-320.876,0,0
392677,46.5883,-318.209,0,0
393979,46.6056,-315.526,0,0
395280.7,46.6736,-312.85,0,0
396582.325,46.8311,-310.142,0,0
397883.95,47.0066,-307.437,0,0
399185.575,47.2808,-304.74,0,0
400006.6,47.4635,-303.042,0,0

File: sample_7.csv
Frequency (Hz),Impedance (ohms),Phase (Radians),Temperature (C),Humidity (%)
10000.0,275.073,-12057.7,0,0
11301.625,247.057,-10667,0,0
12603.25,263.904,-9625.07,0,0
13904.875,209.333,-8728.57,0,0
15206.5,200.299,-7989.05,0,0
16508.125,172.612,-7352.71,0,0
17809.75,169.247,-6798.94,0,0
19111.375,183.165,-6365.6,0,0
20413.0,172.485,-5962.37,0,0
21714.625,155.881,-5621.87,0,0
23016.25,131.865,-5302.94,0,0
24317.875,123.726,-5010.87,0,0
25619.5,120.48,-4747.57,0,0
26921.1,124.31,-4502.85,0,0
28222.7,181.058,-4297.92,0,0
29524.4,136.83,-4157.64,0,0
30826,136.373,-3974.44,0,0
32127.6,118.696,-3830.52,0,0
33429.2,102.805,-3679.75,0,0
34730.9,93.9444,-3535.65,0,0
36032.5,89.8709,-3402.47,0,0
37334.1,87.3485,-3278.96,0,0
38635.7,87.6238,-3162.39,0,0
39937.4,98.5354,-3062.55,0,0
41239,88.0712,-2975.33,0,0
42540.6,81.1021,-2879.82,0,0
43842.225,80.5505,-2791.36,0,0
45143.85,81.2076,-2714.07,0,0
46445.475,78.7886,-2640.84,0,0
47747.1,71.7738,-2565.21,0,0
49048.725,69.5468,-2495.37,0,0
50350.35,67.2515,-2428.52,0,0
51651.975,65.7474,-2365.07,0,0
52953.6,64.8886,-2304.61,0,0
54255.225,63.5304,-2248.1,0,0
55556.85,62.3475,-2193.31,0,0
56858.475,61.6039,-2141.25,0,0
58160.1,60.7603,-2090.77,0,0
59461.7,60.8945,-2043.79,0,0
60763.3,60.5562,-2000,0,0
62065,58.5449,-1956.74,0,0
63366.6,57.5063,-1914.22,0,0
64668.2,56.4156,-1873.57,0,0
65969.8,56.5537,-1835.32,0,0
67271.5,54.8205,-1798.69,0,0
68573.1,53.7066,-1761.82,0,0
69874.7,53.1888,-1726.63,0,0
71176.3,52.8948,-1693.3,0,0
72478,51.832,-1661,0,0
73779.6,50.9474,-1629.35,0,0
75081.2,50.3964,-1598.59,0,0
76382.825,49.9589,-1568.81,0,0
77684.45,49.613,-1540.01,0,0
78986.075,49.3142,-1512.16,0,0
80287.7,49.2231,-1485.1,0,0
81589.325,48.9578,-1458.92,0,0
82890.95,48.8119,-1433.31,0,0
84192.575,48.6906,-1408.3,0,0
85494.2,49.0385,-1384.35,0,0
86795.825,48.9568,-1361.02,0,0
88097.45,49.2718,-1338.17,0,0
89399.075,49.0589,-1316.08,0,0
90700.7,49.4165,-1293.92,0,0
92002.3,49.7678,-1272.79,0,0
93303.9,49.8573,-1251.59,0,0
94605.6,52.8257,-1231.78,0,0
95907.2,51.7551,-1214.46,0,0
97208.8,51.177,-1194.37,0,0
98510.4,52.1216,-1175,0,0
99812.1,51.8823,-1156.75,0,0
101114,52.9719,-1137.66,0,0
102415,54.7338,-1119.83,0,0
103717,57.5236,-1102.72,0,0
105019,58.78,-1087.78,0,0
106320.175,58.3335,-1072.18,0,0
107621.8,59.3138,-1055.59,0,0
108923.425,60.3379,-1040.03,0,0
110225.05,60.6663,-1023.65,0,0
111526.675,63.4839,-1006.53,0,0
112828.3,67.448,-990.419,0,0
114129.925,72.5678,-976.984,0,0
115431.55,77.6911,-964.198,0,0
116733.175,85.1757,-954.148,0,0
118034.8,88.7994,-949.415,0,0
119336.425,91.2149,-944.858,0,0
120638.05,85.9661,-943.786,0,0
121939.675,75.9555,-933.896,0,0
123241,69.5274,-920.939,0,0
124543,65.2467,-906.333,0,0
125845,61.6742,-893.315,0,0
127146,58.4503,-878.612,0,0
128448,56.6463,-863.616,0,0
129749,55.447,-848.99,0,0
131051,54.6721,-834.521,0,0
132353,53.8171,-819.429,0,0
133654,54.516,-803.875,0,0
134956,57.5676,-788.819,0,0
136258,62.3014,-776.787,0,0
137559,63.0046,-768.217,0,0
138860.775,61.6971,-756.632,0,0
140162.4,61.6604,-743.087,0,0
141464.025,62.2229,-730.102,0,0
142765.65,63.1379,-716.445,0,0
144067.275,65.3198,-702.959,0,0
145368.9,67.1636,-690.701,0,0
146670.525,68.1618,-677.448,0,0
147972.15,69.8174,-664.187,0,0
149273.775,71.2097,-650.892,0,0
150575.4,72.0732,-635.457,0,0
151877.025,74.4412,-618.309,0,0
153178.65,79.4236,-600.225,0,0
154480,86.3634,-582.546,0,0
155782,96.1791,-565.069,0,0
157084,108.095,-550.032,0,0
158385,120.614,-538.242,0,0
159687,129.232,-529.492,0,0
160988,132.814,-513.738,0,0
162290,143.298,-490.009,0,0
163592,162.751,-467.199,0,0
164893,190.489,-448.448,0,0
166195,220.112,-431.611,0,0
167497,267.11,-419.824,0,0
168798,320.111,-430.188,0,0
170100,362.32,-460.899,0,0
171401.375,396.67,-507.168,0,0
172703.0,405.062,-561.321,0,0
174004.625,382.973,-612.408,0,0
175306.25,345.342,-633.001,0,0
176607.875,323.568,-623.792,0,0
177909.5,330.29,-628.31,0,0
179211.125,330.572,-664.04,0,0
180512.75,293.551,-686.085,0,0
181814.375,257.194,-696.565,0,0
183116.0,215.075,-686.643,0,0
184417.625,186.031,-662.848,0,0
185719.25,170.936,-639.26,0,0
187021,155.792,-614.331,0,0
188322,152.308,-588.242,0,0
189624,147.514,-572.634,0,0
190926,140.917,-549.502,0,0
192227,140.757,-523.924,0,0
193529,143.734,-499.628,0,0
194831,150.794,-475.058,0,0
196132,162.21,-453.322,0,0
197434,175.012,-434.075,0,0
198735,187.952,-415.466,0,0
200037,202.75,-396.072,0,0
201339,222.655,-375.47,0,0
202640.35,248.614,-355.925,0,0
203941.975,281.091,-342.015,0,0
205243.6,317.563,-336.402,0,0
206545.225,355.81,-341.217,0,0
207846.85,382.117,-353.389,0,0
209148.475,410.564,-351.591,0,0
210450.1,462.683,-368.619,0,0
211751.725,499.023,-416.223,0,0
213053.35,508.088,-463.16,0,0
214354.975,506.295,-506.517,0,0
215656.6,490.688,-539.308,0,0
216958.225,481.159,-566.341,0,0
218259.85,457.185,-593.746,0,0
219561,426.694,-607.837,0,0
220863,397.971,-601.211,0,0
222165,385.02,-587.308,0,0
223466,384.113,-575.891,0,0
224768,387.601,-568.061,0,0
226070,398.206,-561.243,0,0
227371,416.984,-567.344,0,0
228673,432.854,-582.141,0,0
229974,442.91,-610.762,0,0
231276,440.831,-644.249,0,0
232578,424.726,-673.673,0,0
233879,400.643,-704.223,0,0
235180.95,355.522,-719.677,0,0
236482.575,318.197,-709.457,0,0
237784.2,295.012,-698.592,0,0
239085.825,271.961,-679.549,0,0
240387.45,267.525,-659.756,0,0
241689.075,263.254,-654.366,0,0
242990.7,250.217,-646.315,0,0
244292.325,243.304,-627.445,0,0
245593.95,249.064,-611.573,0,0
246895.575,254.079,-607.289,0,0
248197.2,254.939,-603.306,0,0
249498.825,257.598,-598.71,0,0
250800,261.544,-597.021,0,0
252102,264.164,-597.373,0,0
253404,265.734,-601.018,0,0
254705,263.432,-606.753,0,0
256007,255.378,-610.478,0,0
257309,245.857,-608.698,0,0
258610,237.564,-602.615,0,0
259912,233.386,-594.392,0,0
261213,231.207,-584.431,0,0
262515,236.269,-573,0,0
263817,248.53,-569.361,0,0
265118,256.642,-575.465,0,0
266420,259.095,-580.335,0,0
267721.55,262.168,-585.964,0,0
269023.175,262.152,-593.413,0,0
270324.8,262.561,-598.359,0,0
271626.425,266.011,-608.331,0,0
272928.05,268.069,-629.034,0,0
274229.675,248.692,-656.827,0,0
275531.3,212.409,-668.25,0,0
276832.925,177.128,-659.146,0,0
278134.55,152.282,-637.949,0,0
279436.175,141.464,-613.919,0,0
280737.8,138.514,-594.213,0,0
282039.425,138.631,-580.698,0,0
283341,136.145,-568.372,0,0
284643,135.848,-553.508,0,0
285944,140.581,-540.402,0,0
287246,146.184,-531.676,0,0
288548,149.383,-524.524,0,0
289849,153.359,-515.18,0,0
291151,160.056,-506.762,0,0
292452,168.051,-500.832,0,0
293754,176.069,-496.413,0,0
295056,184.193,-492.376,0,0
296357,194.491,-488.752,0,0
297659,207.285,-488.032,0,0
298960.525,220.788,-491.576,0,0
300262.15,234.271,-498.288,0,0
301563.775,249.118,-510.384,0,0
302865.4,261.358,-534.136,0,0
304167.025,255.804,-563.715,0,0
305468.65,240.225,-584.199,0,0
306770.275,220.277,-597.397,0,0
308071.9,199.105,-602.298,0,0
309373.525,180.058,-601.119,0,0
310675.15,164.759,-595.97,0,0
311976.775,152.866,-589.419,0,0
313278.4,143.46,-582.941,0,0
314580,134.852,-575.952,0,0
315882,128.203,-567.728,0,0
317183,124.139,-559.981,0,0
318485,121.157,-553.678,0,0
319787,118.68,-547.587,0,0
321088,117.529,-542.891,0,0
322390,115.913,-539.553,0,0
323691,113.361,-536.699,0,0
324993,110.52,-533.41,0,0
326295,107.888,-529.983,0,0
327596,105.523,-527.207,0,0
328898,102.313,-524.527,0,0
330200,98.9509,-521.553,0,0
331501.125,95.6839,-518.435,0,0
332802.75,91.6462,-515.729,0,0
334104.375,86.6588,-511.827,0,0
335406.0,82.1478,-506.614,0,0
336707.625,78.228,-500.738,0,0
338009.25,75.0552,-494.15,0,0
339310.875,73.0633,-487.484,0,0
340612.5,71.6815,-481.026,0,0
341914.125,70.8336,-474.629,0,0
343215.75,70.7688,-468.413,0,0
344517.375,71.416,-462.597,0,0
345819.0,72.5308,-457.842,0,0
347121,73.3485,-453.945,0,0
348422,73.3817,-450.501,0,0
349724,72.6768,-446.324,0,0
351025,72.4232,-441.563,0,0
352327,72.7502,-436.28,0,0
353629,74.391,-431.298,0,0
354930,76.5125,-427.62,0,0
356232,78.2256,-425.079,0,0
357534,78.5575,-423.042,0,0
358835,77.7482,-420.039,0,0
360137,77.2294,-415.401,0,0
361438,78.1879,-410.397,0,0
362740.1,80.1118,-405.936,0,0
364041.725,82.424,-402.214,0,0
365343.35,85.0237,-398.943,0,0
366644.975,87.6073,-396.682,0,0
367946.6,89.6306,-394.768,0,0
369248.225,91.7873,-393.311,0,0
370549.85,92.9573,-392.96,0,0
371851.475,91.9558,-391.884,0,0
373153.1,91.1224,-388.505,0,0
374454.725,91.73,-384.602,0,0
375756.35,92.9943,-381.051,0,0
377057.975,94.5819,-377.795,0,0
378359.6,96.0745,-374.404,0,0
379661,98.3471,-370.75,0,0
380963,101.277,-367.752,0,0
382264,104.2,-365.137,0,0
383566,107.442,-362.865,0,0
384868,110.548,-361.121,0,0
386169,113.368,-359.801,0,0
387471,116.162,-357.816,0,0
388773,119.366,-355.956,0,0
390074,123.37,-354.143,0,0
391376,127.643,-353.278,0,0
392677,131.678,-352.719,0,0
393979,136.269,-352.116,0,0
395280.7,141.699,-351.969,0,0
396582.325,148.165,-353.266,0,0
397883.95,155.447,-356.667,0,0
399185.575,161.638,-363.724,0,0
400006.6,163.878,-369.63,0,0