Folder: ML_Dmg_Mehdi_Dataset/Accelerated corrosion test data/2025-10-10_18-00-03 (part 3)

File: sample_6.csv
Frequency (Hz),Impedance (ohms),Phase (Radians),Temperature (C),Humidity (%)
10000.0,4229.24,-6500.32,0,0
11301.625,3602.13,-6129.25,0,0
12603.25,3102.19,-5772.35,0,0
13904.875,2696.53,-5443.48,0,0
15206.5,2364.87,-5136.48,0,0
16508.125,2090.98,-4854.61,0,0
17809.75,1862.76,-4596.62,0,0
19111.375,1671.56,-4360.61,0,0
20413.0,1507.28,-4146.92,0,0
21714.625,1366.55,-3947.84,0,0
23016.25,1249.07,-3763.13,0,0
24317.875,1143.81,-3601.26,0,0
25619.5,1051.18,-3446.76,0,0
26921.1,970.66,-3303.28,0,0
28222.7,899.9,-3171.1,0,0
29524.4,836.099,-3046.24,0,0
30826,782.467,-2931.93,0,0
32127.6,733.626,-2823,0,0
33429.2,695.678,-2726.1,0,0
34730.9,652.914,-2638.18,0,0
36032.5,613.216,-2554.2,0,0
37334.1,577.121,-2469.39,0,0
38635.7,545.924,-2389.15,0,0
39937.4,521.225,-2313.26,0,0
41239,499.264,-2245.45,0,0
42540.6,475.391,-2183.62,0,0
43842.225,454.488,-2117.76,0,0
45143.85,440.272,-2058.23,0,0
46445.475,427.973,-2006.83,0,0
47747.1,413.025,-1960.89,0,0
49048.725,396.081,-1918,0,0
50350.35,374.196,-1875.7,0,0
51651.975,354.531,-1829.12,0,0
52953.6,338.156,-1783.88,0,0
54255.225,321.606,-1740.62,0,0
55556.85,307.115,-1697.11,0,0
56858.475,295.79,-1652.19,0,0
58160.1,288.812,-1612.06,0,0
59461.7,281.721,-1575.04,0,0
60763.3,275.182,-1539.55,0,0
62065,269.344,-1508.8,0,0
63366.6,263.583,-1474.07,0,0
64668.2,258.04,-1448.54,0,0
65969.8,247.894,-1419.4,0,0
67271.5,240.292,-1388,0,0
68573.1,236.797,-1358.07,0,0
69874.7,234.65,-1331.65,0,0
71176.3,231.672,-1309.1,0,0
72478,225.237,-1287.29,0,0
73779.6,218.755,-1263.5,0,0
75081.2,214.265,-1239.65,0,0
76382.825,210.207,-1217.81,0,0
77684.45,205.677,-1196.94,0,0
78986.075,200.852,-1176.21,0,0
80287.7,196.151,-1156.08,0,0
81589.325,190.813,-1136.02,0,0
82890.95,186,-1115.43,0,0
84192.575,181.727,-1095.04,0,0
85494.2,177.786,-1074.26,0,0
86795.825,175.597,-1053.46,0,0
88097.45,174.768,-1033.79,0,0
89399.075,175.719,-1016,0,0
90700.7,176.195,-1001.3,0,0
92002.3,172.784,-988.334,0,0
93303.9,168.684,-971.747,0,0
94605.6,167.402,-954.491,0,0
95907.2,167.267,-940.206,0,0
97208.8,165.222,-927.749,0,0
98510.4,161.268,-912.429,0,0
99812.1,160.954,-897.453,0,0
101114,160.713,-885.894,0,0
102415,157.403,-874.208,0,0
103717,153.708,-863.152,0,0
105019,146.859,-851.557,0,0
106320.175,137.976,-834.518,0,0
107621.8,134.705,-813.146,0,0
108923.425,136.253,-794.131,0,0
110225.05,138.702,-776.394,0,0
111526.675,143.743,-760.017,0,0
112828.3,150.429,-748.471,0,0
114129.925,154.32,-738.811,0,0
115431.55,158.908,-729.163,0,0
116733.175,164.488,-726.103,0,0
118034.8,157.361,-724.96,0,0
119336.425,149.938,-712.936,0,0
120638.05,149.355,-698.282,0,0
121939.675,149.716,-691.331,0,0
123241,145.455,-680.565,0,0
124543,143.543,-669.648,0,0
125845,140.684,-658.669,0,0
127146,137.673,-646.257,0,0
128448,136.73,-631.744,0,0
129749,138.419,-619.75,0,0
131051,138.123,-609.201,0,0
132353,137.141,-597.468,0,0
133654,137.063,-585.145,0,0
134956,137.051,-572.355,0,0
136258,137.847,-558.998,0,0
137559,140.533,-545.685,0,0
138860.775,143.555,-533.799,0,0
140162.4,146.912,-521.866,0,0
141464.025,151.709,-510.806,0,0
142765.65,155.147,-502.162,0,0
144067.275,157.164,-492.594,0,0
145368.9,160.099,-482.178,0,0
146670.525,162.955,-473.224,0,0
147972.15,163.775,-464.649,0,0
149273.775,163.329,-452.788,0,0
150575.4,165.079,-438.873,0,0
151877.025,169.438,-423.356,0,0
153178.65,178.699,-410.52,0,0
154480,185.758,-402.615,0,0
155782,190.85,-391.433,0,0
157084,199.68,-382.956,0,0
158385,203.725,-377.064,0,0
159687,206.197,-367.761,0,0
160988,209.734,-356.93,0,0
162290,213.592,-345.64,0,0
163592,218.588,-332.462,0,0
164893,224.692,-319.812,0,0
166195,231.82,-306.301,0,0
167497,240.029,-293.018,0,0
168798,249.778,-279.434,0,0
170100,260.047,-267.189,0,0
171401.375,269.944,-254.702,0,0
172703.0,280.025,-241.488,0,0
174004.625,290.072,-227.084,0,0
175306.25,301.247,-209.782,0,0
176607.875,315.645,-190.117,0,0
177909.5,334.542,-168.841,0,0
179211.125,359.789,-147.955,0,0
180512.75,389.238,-131.955,0,0
181814.375,419.196,-117.566,0,0
183116.0,452.073,-105.355,0,0
184417.625,484.845,-92.974,0,0
185719.25,523.33,-77.0427,0,0
187021,572.881,-62.1953,0,0
188322,634.48,-53.955,0,0
189624,706.351,-59.865,0,0
190926,781.499,-85.6023,0,0
192227,847.725,-128.001,0,0
193529,907.943,-176.821,0,0
194831,967.541,-237.005,0,0
196132,1020.66,-314.14,0,0
197434,1059.62,-407.456,0,0
198735,1076.35,-512.097,0,0
200037,1069.74,-619.212,0,0
201339,1039.09,-723.697,0,0
202640.35,984.573,-816.932,0,0
203941.975,912.959,-889.973,0,0
205243.6,834.263,-941.5,0,0
206545.225,754.274,-973.828,0,0
207846.85,678.232,-989.67,0,0
209148.475,608.355,-992.903,0,0
210450.1,546.332,-987.056,0,0
211751.725,490.846,-975.026,0,0
213053.35,443.232,-957.151,0,0
214354.975,402.482,-938.415,0,0
215656.6,365.916,-917.257,0,0
216958.225,334.993,-894.953,0,0
218259.85,308.003,-871.941,0,0
219561,284.912,-848.182,0,0
220863,265.595,-823.709,0,0
222165,250.396,-798.922,0,0
223466,239.852,-774.052,0,0
224768,234.764,-750.772,0,0
226070,234.212,-732.648,0,0
227371,232.922,-720.813,0,0
228673,227.72,-710.546,0,0
229974,221.029,-698.36,0,0
231276,215.352,-684.396,0,0
232578,211.52,-669.762,0,0
233879,209.618,-654.986,0,0
235180.95,209.689,-640.698,0,0
236482.575,211.875,-627.326,0,0
237784.2,215.594,-615.176,0,0
239085.825,220.799,-604.355,0,0
240387.45,227.396,-595.348,0,0
241689.075,234.54,-588.398,0,0
242990.7,242.113,-583.132,0,0
244292.325,250.631,-579.268,0,0
245593.95,259.892,-578.376,0,0
246895.575,267.678,-580.186,0,0
248197.2,274.352,-583.447,0,0
249498.825,279.663,-587.094,0,0
250800,287.315,-591.054,0,0
252102,295.23,-601.614,0,0
253404,297.894,-616.185,0,0
254705,295.214,-631.987,0,0
256007,286.741,-646.685,0,0
257309,274.223,-657.755,0,0
258610,260.101,-664.976,0,0
259912,245.55,-668.991,0,0
261213,231.26,-670.275,0,0
262515,217.796,-669.434,0,0
263817,205.351,-667.126,0,0
265118,193.715,-663.733,0,0
266420,183.124,-659.325,0,0
267721.55,173.307,-654.494,0,0
269023.175,164.216,-649.155,0,0
270324.8,155.851,-643.417,0,0
271626.425,148.152,-637.335,0,0
272928.05,141.124,-630.976,0,0
274229.675,134.822,-624.558,0,0
275531.3,128.979,-617.922,0,0
276832.925,123.764,-611.328,0,0
278134.55,119.077,-604.7,0,0
279436.175,114.803,-597.993,0,0
280737.8,111.454,-591.162,0,0
282039.425,108.866,-585.039,0,0
283341,106.119,-579.423,0,0
284643,103.583,-573.643,0,0
285944,101.872,-568.068,0,0
287246,100.381,-563.717,0,0
288548,97.9988,-559.701,0,0
289849,95.4318,-555.192,0,0
291151,93.2294,-550.63,0,0
292452,91.2141,-546.323,0,0
293754,89.0802,-542.351,0,0
295056,86.4878,-538.323,0,0
296357,83.7044,-533.694,0,0
297659,81.4765,-528.361,0,0
298960.525,80.4467,-523.19,0,0
300262.15,79.6992,-519.086,0,0
301563.775,78.3504,-515.305,0,0
302865.4,76.8976,-511.437,0,0
304167.025,75.641,-507.368,0,0
305468.65,74.6237,-503.432,0,0
306770.275,73.7006,-499.88,0,0
308071.9,72.4079,-496.633,0,0
309373.525,71.0498,-493.141,0,0
310675.15,69.739,-489.645,0,0
311976.775,68.412,-486.198,0,0
313278.4,67.0192,-482.753,0,0
314580,65.6436,-479.097,0,0
315882,64.461,-475.502,0,0
317183,63.3795,-471.998,0,0
318485,62.3042,-468.522,0,0
319787,61.2189,-464.981,0,0
321088,60.2505,-461.367,0,0
322390,59.4145,-457.873,0,0
323691,58.6497,-454.494,0,0
324993,57.9463,-451.236,0,0
326295,57.0532,-448.041,0,0
327596,56.2457,-444.742,0,0
328898,55.4333,-441.445,0,0
330200,54.6725,-438.063,0,0
331501.125,53.9973,-434.723,0,0
332802.75,53.4091,-431.313,0,0
334104.375,53.0519,-428.085,0,0
335406.0,52.6417,-424.866,0,0
336707.625,52.3187,-421.779,0,0
338009.25,51.9546,-418.764,0,0
339310.875,51.5492,-415.698,0,0
340612.5,51.2532,-412.644,0,0
341914.125,51.052,-409.555,0,0
343215.75,51.0684,-406.675,0,0
344517.375,50.913,-404.083,0,0
345819.0,50.4382,-401.355,0,0
347121,50.1129,-398.377,0,0
348422,49.982,-395.445,0,0
349724,49.9739,-392.553,0,0
351025,50.0873,-389.768,0,0
352327,50.211,-387.15,0,0
353629,50.3818,-384.646,0,0
354930,50.4797,-382.308,0,0
356232,50.3625,-380.045,0,0
357534,50.2815,-377.67,0,0
358835,50.2762,-375.384,0,0
360137,50.1491,-373.152,0,0
361438,49.9392,-370.903,0,0
362740.1,49.6401,-368.568,0,0
364041.725,49.3998,-366.136,0,0
365343.35,49.2655,-363.7,0,0
366644.975,49.1782,-361.245,0,0
367946.6,49.1631,-358.9,0,0
369248.225,49.1281,-356.593,0,0
370549.85,49.0975,-354.226,0,0
371851.475,49.2011,-351.961,0,0
373153.1,49.3268,-349.812,0,0
374454.725,49.3578,-347.965,0,0
375756.35,48.9922,-346.062,0,0
377057.975,48.5064,-343.877,0,0
378359.6,48.0926,-341.551,0,0
379661,47.7447,-339.145,0,0
380963,47.4496,-336.618,0,0
382264,47.2763,-333.934,0,0
383566,47.6457,-331.417,0,0
384868,47.575,-329.383,0,0
386169,47.3679,-327.047,0,0
387471,47.2097,-324.595,0,0
388773,47.1151,-322.098,0,0
390074,47.0557,-319.564,0,0
391376,47.0564,-317.039,0,0
392677,47.0558,-314.461,0,0
393979,47.0834,-311.879,0,0
395280.7,47.1909,-309.252,0,0
396582.325,47.2752,-306.58,0,0
397883.95,47.4721,-303.917,0,0
399185.575,47.7057,-301.196,0,0
400006.6,47.878,-299.493,0,0

File: sample_7.csv
Frequency (Hz),Impedance (ohms),Phase (Radians),Temperature (C),Humidity (%)
10000.0,273.941,-12077.1,0,0
11301.625,247.386,-10684.7,0,0
12603.25,257.08,-9628.59,0,0
13904.875,210.953,-8740.06,0,0
15206.5,194.859,-8005.4,0,0
16508.125,171.896,-7365.02,0,0
17809.75,171.752,-6810.13,0,0
19111.375,181.359,-6368.01,0,0
20413.0,167.985,-5976.56,0,0
21714.625,155.581,-5634.83,0,0
23016.25,130.666,-5311.91,0,0
24317.875,123.403,-5019.18,0,0
25619.5,118.732,-4755.45,0,0
26921.1,123.902,-4510.72,0,0
28222.7,181.154,-4308.94,0,0
29524.4,136.775,-4164.57,0,0
30826,134.066,-3982.94,0,0
32127.6,117.783,-3837.72,0,0
33429.2,101.868,-3686.41,0,0
34730.9,92.8209,-3542.17,0,0
36032.5,88.9077,-3408.48,0,0
37334.1,86.5783,-3285.05,0,0
38635.7,87.1098,-3168.07,0,0
39937.4,97.6323,-3068.27,0,0
41239,87.0348,-2980.57,0,0
42540.6,80.6689,-2884.68,0,0
43842.225,79.6441,-2796.22,0,0
45143.85,80.9777,-2718.53,0,0
46445.475,77.767,-2646.18,0,0
47747.1,71.2428,-2570.27,0,0
49048.725,68.3212,-2499.82,0,0
50350.35,66.5352,-2432.86,0,0
51651.975,64.6937,-2369.37,0,0
52953.6,63.9817,-2308.84,0,0
54255.225,62.7115,-2252.06,0,0
55556.85,61.5062,-2197.32,0,0
56858.475,60.6327,-2145.17,0,0
58160.1,59.9956,-2094.72,0,0
59461.7,60.2577,-2047.4,0,0
60763.3,59.5987,-2003.56,0,0
62065,57.5547,-1960.39,0,0
63366.6,56.3689,-1917.51,0,0
64668.2,55.4027,-1876.95,0,0
65969.8,55.4752,-1838.6,0,0
67271.5,53.7171,-1801.75,0,0
68573.1,52.6248,-1765.09,0,0
69874.7,52.1689,-1729.72,0,0
71176.3,51.9308,-1696.34,0,0
72478,50.6791,-1664.02,0,0
73779.6,49.9332,-1632.23,0,0
75081.2,49.3996,-1601.49,0,0
76382.825,48.8834,-1571.7,0,0
77684.45,48.6151,-1542.81,0,0
78986.075,48.3105,-1514.92,0,0
80287.7,48.1031,-1487.89,0,0
81589.325,47.7815,-1461.58,0,0
82890.95,47.5685,-1435.99,0,0
84192.575,47.6427,-1410.8,0,0
85494.2,47.7697,-1386.78,0,0
86795.825,47.8071,-1363.34,0,0
88097.45,47.9919,-1340.66,0,0
89399.075,47.7704,-1318.29,0,0
90700.7,48.0897,-1296.2,0,0
92002.3,48.5884,-1274.68,0,0
93303.9,49.1141,-1253.82,0,0
94605.6,50.6624,-1234.06,0,0
95907.2,50.5538,-1215.81,0,0
97208.8,50.1009,-1196.37,0,0
98510.4,50.9911,-1177.04,0,0
99812.1,50.5506,-1158.17,0,0
101114,52.1073,-1139.33,0,0
102415,53.805,-1121.17,0,0
103717,56.5265,-1104.66,0,0
105019,57.4337,-1089.46,0,0
106320.175,57.0714,-1073.21,0,0
107621.8,58.1648,-1057.08,0,0
108923.425,59.209,-1041,0,0
110225.05,59.6612,-1024.37,0,0
111526.675,62.7763,-1007.62,0,0
112828.3,67.0254,-991.641,0,0
114129.925,72.0436,-977.783,0,0
115431.55,77.72,-964.885,0,0
116733.175,85.3349,-956.28,0,0
118034.8,88.5052,-950.304,0,0
119336.425,91.0694,-947.434,0,0
120638.05,84.952,-946.146,0,0
121939.675,75.4829,-935.8,0,0
123241,68.4887,-923.056,0,0
124543,64.3159,-908.361,0,0
125845,60.4356,-894.709,0,0
127146,57.3706,-879.717,0,0
128448,55.8294,-865.067,0,0
129749,54.4797,-850.614,0,0
131051,53.3885,-836.169,0,0
132353,52.8093,-820.882,0,0
133654,53.3818,-805.313,0,0
134956,56.2928,-790.482,0,0
136258,61.5833,-777.5,0,0
137559,62.3568,-769.737,0,0
138860.775,60.4859,-757.908,0,0
140162.4,61.0107,-744.496,0,0
141464.025,60.9999,-731.359,0,0
142765.65,62.2925,-717.351,0,0
144067.275,64.8206,-704.525,0,0
145368.9,66.2253,-691.965,0,0
146670.525,67.3408,-678.784,0,0
147972.15,69.1221,-665.563,0,0
149273.775,69.6543,-652.446,0,0
150575.4,70.612,-636.562,0,0
151877.025,73.3473,-619.209,0,0
153178.65,78.4507,-601.429,0,0
154480,85.2947,-583.53,0,0
155782,94.9404,-566.248,0,0
157084,106.742,-550.781,0,0
158385,119.827,-538.955,0,0
159687,127.947,-530.57,0,0
160988,131.023,-515.334,0,0
162290,141.706,-491.296,0,0
163592,161.388,-467.811,0,0
164893,187.794,-449.928,0,0
166195,217.604,-430.891,0,0
167497,263.414,-419.006,0,0
168798,318.627,-426.053,0,0
170100,365.232,-456.953,0,0
171401.375,397.867,-504.629,0,0
172703.0,409.96,-565.644,0,0
174004.625,381.557,-620.084,0,0
175306.25,339.381,-633.868,0,0
176607.875,320.402,-623.42,0,0
177909.5,331.404,-625.583,0,0
179211.125,327.949,-663.412,0,0
180512.75,297.822,-684.27,0,0
181814.375,257.172,-698.639,0,0
183116.0,214.855,-686.77,0,0
184417.625,186.465,-664.396,0,0
185719.25,168.11,-641.603,0,0
187021,154.838,-614.498,0,0
188322,152.149,-590.076,0,0
189624,146.27,-573.188,0,0
190926,139.902,-550.667,0,0
192227,139.536,-525.888,0,0
193529,142.372,-500.854,0,0
194831,149.304,-476.292,0,0
196132,161.063,-454.884,0,0
197434,173.775,-435.97,0,0
198735,185.616,-418.199,0,0
200037,199.182,-398.061,0,0
201339,217.618,-377.209,0,0
202640.35,243.274,-357.038,0,0
203941.975,274.162,-341.605,0,0
205243.6,310.72,-332.149,0,0
206545.225,351.229,-336.33,0,0
207846.85,378.2,-346.713,0,0
209148.475,411.753,-345.647,0,0
210450.1,463.693,-363.391,0,0
211751.725,498.774,-410.855,0,0
213053.35,511.118,-460.362,0,0
214354.975,507.443,-502.676,0,0
215656.6,495.202,-535.147,0,0
216958.225,485.26,-566.403,0,0
218259.85,460.694,-592.179,0,0
219561,429.796,-606.608,0,0
220863,401.373,-602.223,0,0
222165,386.962,-588.377,0,0
223466,384.927,-576.576,0,0
224768,387.58,-568.746,0,0
226070,399.906,-560.531,0,0
227371,417.827,-566.005,0,0
228673,436.013,-582.88,0,0
229974,444.717,-610.102,0,0
231276,442.336,-644.469,0,0
232578,428.54,-675.487,0,0
233879,400.499,-706.67,0,0
235180.95,356.943,-719.761,0,0
236482.575,322.417,-711.175,0,0
237784.2,295.306,-702.665,0,0
239085.825,271.442,-681.442,0,0
240387.45,269.211,-662.043,0,0
241689.075,262.806,-657.668,0,0
242990.7,249.295,-646.895,0,0
244292.325,242.439,-627.624,0,0
245593.95,249.101,-613.462,0,0
246895.575,252.929,-609.023,0,0
248197.2,254.063,-603.804,0,0
249498.825,256.763,-598.728,0,0
250800,260.645,-596.405,0,0
252102,265.118,-596.599,0,0
253404,267.546,-601.493,0,0
254705,263.826,-608.44,0,0
256007,255.557,-611.475,0,0
257309,245.728,-610.108,0,0
258610,237.69,-603.386,0,0
259912,233.142,-596.032,0,0
261213,230.74,-585.291,0,0
262515,236.128,-573.982,0,0
263817,247.89,-570.625,0,0
265118,255.707,-575.623,0,0
266420,258.947,-579.81,0,0
267721.55,262.751,-586.601,0,0
269023.175,261.749,-594.21,0,0
270324.8,262.107,-598.416,0,0
271626.425,266.564,-606.961,0,0
272928.05,269.447,-629.794,0,0
274229.675,249.751,-657.898,0,0
275531.3,213.496,-670.216,0,0
276832.925,177.38,-661.735,0,0
278134.55,151.934,-639.734,0,0
279436.175,140.75,-615.894,0,0
280737.8,137.734,-595.549,0,0
282039.425,137.406,-582.547,0,0
283341,133.92,-569.09,0,0
284643,134.723,-553.173,0,0
285944,139.866,-540.208,0,0
287246,145.896,-531.735,0,0
288548,149.143,-524.638,0,0
289849,152.95,-515.71,0,0
291151,159.575,-506.828,0,0
292452,167.556,-500.849,0,0
293754,175.524,-495.948,0,0
295056,184.167,-491.394,0,0
296357,195.169,-487.94,0,0
297659,208.747,-487.592,0,0
298960.525,222.187,-491.723,0,0
300262.15,235.858,-498.829,0,0
301563.775,250.599,-511.345,0,0
302865.4,262.249,-535.51,0,0
304167.025,257.246,-564.709,0,0
305468.65,241.558,-586.012,0,0
306770.275,220.838,-599.476,0,0
308071.9,199.593,-604.313,0,0
309373.525,180.098,-603.268,0,0
310675.15,164.659,-597.68,0,0
311976.775,152.927,-591.486,0,0
313278.4,142.847,-584.955,0,0
314580,133.951,-577.43,0,0
315882,127.755,-568.8,0,0
317183,123.956,-561.413,0,0
318485,120.717,-555.137,0,0
319787,118.362,-549.086,0,0
321088,116.902,-544.41,0,0
322390,115.15,-540.971,0,0
323691,112.498,-537.982,0,0
324993,109.572,-534.274,0,0
326295,107.471,-530.749,0,0
327596,105.16,-528.034,0,0
328898,102.222,-525.424,0,0
330200,99.0429,-522.613,0,0
331501.125,95.7513,-519.922,0,0
332802.75,91.6945,-517.213,0,0
334104.375,86.872,-513.571,0,0
335406.0,82.1701,-508.816,0,0
336707.625,77.8549,-503.198,0,0
338009.25,74.4479,-496.784,0,0
339310.875,71.9131,-490.254,0,0
340612.5,70.0841,-483.725,0,0
341914.125,68.8297,-477.118,0,0
343215.75,68.4951,-470.569,0,0
344517.375,68.9617,-464.575,0,0
345819.0,69.8438,-459.457,0,0
347121,70.5365,-455.255,0,0
348422,70.5117,-451.412,0,0
349724,69.9558,-446.909,0,0
351025,69.5895,-441.893,0,0
352327,70.2641,-436.314,0,0
353629,71.9676,-431.385,0,0
354930,73.9581,-427.387,0,0
356232,75.9261,-424.763,0,0
357534,76.1513,-422.51,0,0
358835,75.5168,-419.1,0,0
360137,75.4283,-414.401,0,0
361438,76.6724,-409.315,0,0
362740.1,78.8632,-404.972,0,0
364041.725,81.1974,-401.173,0,0
365343.35,84.169,-397.951,0,0
366644.975,86.9271,-395.929,0,0
367946.6,89.1092,-394.153,0,0
369248.225,91.1654,-392.974,0,0
370549.85,92.2163,-392.835,0,0
371851.475,91.0027,-391.683,0,0
373153.1,90.1637,-388.292,0,0
374454.725,90.7065,-384.315,0,0
375756.35,92.1051,-380.599,0,0
377057.975,93.5639,-377.465,0,0
378359.6,95.1974,-373.81,0,0
379661,97.7052,-370.394,0,0
380963,100.417,-367.694,0,0
382264,102.915,-365.01,0,0
383566,106.007,-362.393,0,0
384868,109.293,-360.467,0,0
386169,112.136,-358.731,0,0
387471,115.087,-356.904,0,0
388773,118.167,-354.588,0,0
390074,122.849,-352.62,0,0
391376,127.381,-352.177,0,0
392677,131.521,-351.772,0,0
393979,135.856,-351.488,0,0
395280.7,140.958,-351.168,0,0
396582.325,147.621,-351.873,0,0
397883.95,155.107,-355.46,0,0
399185.575,161.39,-362.279,0,0
400006.6,163.781,-368.133,0,0