Folder: ML_Dmg_Mehdi_Dataset/Accelerated corrosion test data/2025-10-22_18-00-04 (part 2)

File: sample_3.csv
Frequency (Hz),Impedance (ohms),Phase (Radians),Temperature (C),Humidity (%)
10000.0,253.759,-11884.6,0,0
11301.625,225.49,-10526.8,0,0
12603.25,204.271,-9447.77,0,0
13904.875,187.753,-8567.44,0,0
15206.5,175.516,-7829.62,0,0
16508.125,162.779,-7231.57,0,0
17809.75,157.85,-6699.35,0,0
19111.375,146.665,-6246.19,0,0
20413.0,166.962,-5843,0,0
21714.625,140.172,-5517.35,0,0
23016.25,128.976,-5209.76,0,0
24317.875,120.351,-4928.59,0,0
25619.5,114.477,-4678.36,0,0
26921.1,109.354,-4446.73,0,0
28222.7,104.354,-4237.32,0,0
29524.4,108.943,-4059.78,0,0
30826,102.27,-3886.26,0,0
32127.6,102.732,-3720.24,0,0
33429.2,99.6113,-3596.22,0,0
34730.9,88.1299,-3456.65,0,0
36032.5,83.8534,-3327.55,0,0
37334.1,80.6927,-3208.78,0,0
38635.7,78.5324,-3098.05,0,0
39937.4,76.1122,-2994.65,0,0
41239,74.6408,-2896.59,0,0
42540.6,73.6183,-2806.17,0,0
43842.225,72.2052,-2720.38,0,0
45143.85,71.4738,-2640.07,0,0
46445.475,69.9954,-2563.52,0,0
47747.1,70.6072,-2490.67,0,0
49048.725,68.7847,-2424.46,0,0
50350.35,66.7401,-2358.94,0,0
51651.975,66.3003,-2295.68,0,0
52953.6,66.4795,-2235.64,0,0
54255.225,69.3008,-2180.09,0,0
55556.85,66.8276,-2131.96,0,0
56858.475,61.991,-2078.97,0,0
58160.1,61.2955,-2026.46,0,0
59461.7,61.7116,-1976.92,0,0
60763.3,63.0585,-1929.95,0,0
62065,64.9131,-1884.58,0,0
63366.6,68.9315,-1840.25,0,0
64668.2,77.7873,-1798.32,0,0
65969.8,91.8502,-1773.35,0,0
67271.5,75.7948,-1746.88,0,0
68573.1,76.1711,-1708.98,0,0
69874.7,76.8864,-1679.51,0,0
71176.3,71.4788,-1649.34,0,0
72478,70.489,-1616.19,0,0
73779.6,69.0848,-1587.92,0,0
75081.2,65.3823,-1559.78,0,0
76382.825,61.6621,-1530.73,0,0
77684.45,58.853,-1501.69,0,0
78986.075,56.3931,-1472.95,0,0
80287.7,54.727,-1444.65,0,0
81589.325,53.6656,-1417.26,0,0
82890.95,53.0356,-1390.67,0,0
84192.575,52.732,-1364.74,0,0
85494.2,52.5384,-1339.63,0,0
86795.825,52.606,-1315.14,0,0
88097.45,53.0449,-1291.14,0,0
89399.075,54.5187,-1267.26,0,0
90700.7,56.4067,-1245.52,0,0
92002.3,58.2839,-1224.64,0,0
93303.9,60.8195,-1205.24,0,0
94605.6,61.3586,-1190.36,0,0
95907.2,56.4403,-1172.02,0,0
97208.8,55.2827,-1150.56,0,0
98510.4,55.1145,-1130.46,0,0
99812.1,54.9261,-1111.13,0,0
101114,54.7081,-1091.24,0,0
102415,56.2952,-1070.72,0,0
103717,60.0683,-1052.85,0,0
105019,63.2184,-1038.35,0,0
106320.175,63.244,-1024.31,0,0
107621.8,61.5734,-1008.94,0,0
108923.425,59.6714,-991.752,0,0
110225.05,59.5469,-973.472,0,0
111526.675,61.7235,-955.545,0,0
112828.3,63.7662,-939.46,0,0
114129.925,65.0732,-923.605,0,0
115431.55,66.7692,-906.61,0,0
116733.175,70.1735,-889.772,0,0
118034.8,76.1306,-873.208,0,0
119336.425,82.6731,-860.769,0,0
120638.05,90.1649,-854.709,0,0
121939.675,86.0011,-846.389,0,0
123241,86.5938,-832.402,0,0
124543,88.5754,-820.521,0,0
125845,90.6244,-809.783,0,0
127146,90.8125,-800.105,0,0
128448,89.7644,-789.814,0,0
129749,88.5849,-777.544,0,0
131051,89.4711,-765.539,0,0
132353,88.4968,-754.665,0,0
133654,87.1906,-743.109,0,0
134956,85.6619,-730.423,0,0
136258,84.0634,-717.19,0,0
137559,83.3976,-701.912,0,0
138860.775,84.731,-688.333,0,0
140162.4,84.1934,-675.252,0,0
141464.025,82.887,-661.338,0,0
142765.65,81.9531,-645.125,0,0
144067.275,82.135,-627.91,0,0
145368.9,83.6853,-609.82,0,0
146670.525,86.101,-590.994,0,0
147972.15,90.2155,-571.208,0,0
149273.775,96.2854,-550.813,0,0
150575.4,106.431,-530.654,0,0
151877.025,118.958,-513.502,0,0
153178.65,130.464,-499.893,0,0
154480,140.34,-486.453,0,0
155782,149.998,-470.996,0,0
157084,161.754,-453.82,0,0
158385,176.725,-443.347,0,0
159687,181.362,-428.302,0,0
160988,194.285,-403.753,0,0
162290,216.71,-377.506,0,0
163592,248.814,-351.343,0,0
164893,298.412,-337.044,0,0
166195,353.097,-344.232,0,0
167497,395.106,-377.216,0,0
168798,414.22,-414.82,0,0
170100,415.116,-450.091,0,0
171401.375,406.173,-464.08,0,0
172703.0,407.783,-468.387,0,0
174004.625,412.843,-481.493,0,0
175306.25,419.039,-495.463,0,0
176607.875,420.364,-523.348,0,0
177909.5,392.247,-540.992,0,0
179211.125,369.094,-530.712,0,0
180512.75,365.335,-518.445,0,0
181814.375,370.082,-514.31,0,0
183116.0,369.458,-521.013,0,0
184417.625,354.321,-524.201,0,0
185719.25,337.074,-515.477,0,0
187021,330.026,-493.461,0,0
188322,331.24,-477.091,0,0
189624,333.894,-457.751,0,0
190926,344.037,-443.369,0,0
192227,351.408,-429.162,0,0
193529,363.157,-409.993,0,0
194831,383.699,-393.285,0,0
196132,414.73,-382.354,0,0
197434,441.445,-392.333,0,0
198735,452.46,-401.22,0,0
200037,460.904,-402.413,0,0
201339,470.035,-394.173,0,0
202640.35,495.801,-385.298,0,0
203941.975,524.317,-387.258,0,0
205243.6,549.803,-403.76,0,0
206545.225,559.163,-412.603,0,0
207846.85,585.042,-409.42,0,0
209148.475,621.472,-422.705,0,0
210450.1,653.004,-447.005,0,0
211751.725,679.321,-478.578,0,0
213053.35,701.9,-515.134,0,0
214354.975,713.094,-559.673,0,0
215656.6,718.55,-602.155,0,0
216958.225,715.5,-646.018,0,0
218259.85,706.048,-688.336,0,0
219561,689.514,-726.243,0,0
220863,672.893,-763.39,0,0
222165,644.405,-805.989,0,0
223466,597.205,-832.297,0,0
224768,557.294,-836.114,0,0
226070,533.867,-835.36,0,0
227371,517.019,-844.789,0,0
228673,490.663,-855.505,0,0
229974,465.305,-862.679,0,0
231276,436.204,-867.267,0,0
232578,409.159,-865.779,0,0
233879,384.693,-862.824,0,0
235180.95,361.815,-859.658,0,0
236482.575,336.704,-855.271,0,0
237784.2,312.036,-846.915,0,0
239085.825,289.161,-834.103,0,0
240387.45,270.004,-818.62,0,0
241689.075,253.58,-800.375,0,0
242990.7,244.956,-781.19,0,0
244292.325,239.145,-768.3,0,0
245593.95,231.622,-755.175,0,0
246895.575,226.573,-742.165,0,0
248197.2,222.172,-729.495,0,0
249498.825,221.758,-718.63,0,0
250800,219.886,-711.717,0,0
252102,214.881,-705.3,0,0
253404,207.92,-696.178,0,0
254705,202.238,-682.559,0,0
256007,201.052,-666.409,0,0
257309,206.58,-652.093,0,0
258610,214.809,-640.727,0,0
259912,227.301,-632.607,0,0
261213,244.697,-634.362,0,0
262515,252.905,-648.219,0,0
263817,249.757,-661.704,0,0
265118,240.792,-670.748,0,0
266420,226.892,-675.443,0,0
267721.55,212.122,-671.906,0,0
269023.175,201.039,-663.251,0,0
270324.8,194.801,-652.705,0,0
271626.425,192.674,-643.468,0,0
272928.05,190.605,-635.58,0,0
274229.675,190.281,-626.26,0,0
275531.3,193.34,-617.145,0,0
276832.925,200.294,-611.164,0,0
278134.55,208.235,-610.205,0,0
279436.175,214.715,-614.87,0,0
280737.8,215.429,-623.006,0,0
282039.425,210.483,-629.865,0,0
283341,202.659,-633.004,0,0
284643,194.196,-632.777,0,0
285944,186.868,-629.703,0,0
287246,181.145,-625.072,0,0
288548,177.468,-619.767,0,0
289849,176.362,-615.61,0,0
291151,174.603,-613.863,0,0
292452,170.558,-611.731,0,0
293754,167.058,-606.748,0,0
295056,167.339,-601.073,0,0
296357,169.745,-599.397,0,0
297659,170.203,-600.789,0,0
298960.525,168.213,-602.901,0,0
300262.15,163.931,-604.741,0,0
301563.775,157.93,-605.148,0,0
302865.4,151.455,-603.319,0,0
304167.025,145.614,-600.158,0,0
305468.65,140.684,-595.895,0,0
306770.275,136.67,-591.273,0,0
308071.9,133.792,-586.458,0,0
309373.525,132.147,-582.35,0,0
310675.15,130.484,-579.889,0,0
311976.775,127.093,-577.998,0,0
313278.4,122.282,-574.592,0,0
314580,118.17,-568.986,0,0
315882,116.327,-562.394,0,0
317183,116.445,-556.96,0,0
318485,116.985,-552.961,0,0
319787,117.218,-550.059,0,0
321088,117.278,-546.721,0,0
322390,118.64,-544.279,0,0
323691,119.958,-544.272,0,0
324993,119.032,-545.764,0,0
326295,116.002,-546.81,0,0
327596,111.358,-546.575,0,0
328898,106.611,-544.707,0,0
330200,102.471,-542.233,0,0
331501.125,98.1144,-539.375,0,0
332802.75,93.7471,-535.809,0,0
334104.375,89.4019,-531.503,0,0
335406.0,85.3912,-526.389,0,0
336707.625,82.3744,-520.146,0,0
338009.25,80.4597,-514.085,0,0
339310.875,78.8544,-507.995,0,0
340612.5,78.3565,-501.028,0,0
341914.125,79.9936,-494.542,0,0
343215.75,82.8936,-490.3,0,0
344517.375,85.2154,-488.219,0,0
345819.0,85.7928,-486.941,0,0
347121,84.9951,-485.385,0,0
348422,83.6113,-482.565,0,0
349724,82.8478,-478.472,0,0
351025,83.9875,-474.601,0,0
352327,85.5623,-472.507,0,0
353629,86.0576,-471.852,0,0
354930,84.9964,-470.696,0,0
356232,83.4124,-468.966,0,0
357534,81.7185,-465.96,0,0
358835,81.0466,-462.447,0,0
360137,81.1032,-459.531,0,0
361438,80.6823,-457.148,0,0
362740.1,79.9721,-453.908,0,0
364041.725,80.6959,-450.222,0,0
365343.35,82.4535,-448.051,0,0
366644.975,83.4226,-447.645,0,0
367946.6,82.006,-447.675,0,0
369248.225,79.3289,-445.17,0,0
370549.85,78.9355,-441,0,0
371851.475,80.2553,-438.65,0,0
373153.1,80.3048,-438.073,0,0
374454.725,78.6303,-436.735,0,0
375756.35,76.9202,-433.943,0,0
377057.975,76.089,-430.521,0,0
378359.6,76.2112,-426.862,0,0
379661,77.5649,-424.243,0,0
380963,78.1367,-423.023,0,0
382264,77.9678,-421.513,0,0
383566,77.6588,-420.283,0,0
384868,76.4571,-418.789,0,0
386169,75.0851,-416.677,0,0
387471,73.5874,-413.86,0,0
388773,72.51,-410.109,0,0
390074,72.3688,-405.834,0,0
391376,73.6511,-401.582,0,0
392677,75.8629,-398.514,0,0
393979,77.9989,-396.357,0,0
395280.7,80.2492,-394.842,0,0
396582.325,82.2598,-394.386,0,0
397883.95,83.4891,-394.616,0,0
399185.575,83.9137,-395.155,0,0
400006.6,83.5554,-395.566,0,0

File: sample_4.csv
Frequency (Hz),Impedance (ohms),Phase (Radians),Temperature (C),Humidity (%)
10000.0,264.23,-11920.4,0,0
11301.625,234.99,-10560.4,0,0
12603.25,214.336,-9473.61,0,0
13904.875,193.57,-8589.38,0,0
15206.5,181.411,-7861.28,0,0
16508.125,188.722,-7256.53,0,0
17809.75,156.038,-6736.22,0,0
19111.375,145.517,-6277.6,0,0
20413.0,140.55,-5874.63,0,0
21714.625,148.487,-5529.72,0,0
23016.25,125.13,-5227.69,0,0
24317.875,115.887,-4942.42,0,0
25619.5,112.001,-4688.1,0,0
26921.1,106.318,-4456.93,0,0
28222.7,121.171,-4254.31,0,0
29524.4,113.415,-4075.12,0,0
30826,98.4045,-3901.33,0,0
32127.6,100.317,-3740.12,0,0
33429.2,89.6609,-3598.84,0,0
34730.9,84.505,-3459.74,0,0
36032.5,81.3145,-3332.06,0,0
37334.1,79.3149,-3212.62,0,0
38635.7,76.8979,-3100.26,0,0
39937.4,77.1313,-2993.63,0,0
41239,79.7348,-2899.9,0,0
42540.6,78.5692,-2811.01,0,0
43842.225,73.3104,-2727.4,0,0
45143.85,71.0022,-2646.29,0,0
46445.475,70.5723,-2568.57,0,0
47747.1,69.9251,-2498.19,0,0
49048.725,65.9718,-2428.9,0,0
50350.35,64.0989,-2361.41,0,0
51651.975,63.3754,-2296.51,0,0
52953.6,64.923,-2233.36,0,0
54255.225,73.3036,-2176.52,0,0
55556.85,71.7868,-2133.15,0,0
56858.475,65.1232,-2079.11,0,0
58160.1,66.4659,-2026.68,0,0
59461.7,70.4963,-1975.75,0,0
60763.3,80.3176,-1937.32,0,0
62065,69.9118,-1904.78,0,0
63366.6,63.3492,-1858.91,0,0
64668.2,63.9616,-1815.26,0,0
65969.8,66.0968,-1774.13,0,0
67271.5,70.0685,-1737.75,0,0
68573.1,73.5643,-1708.65,0,0
69874.7,66.266,-1678.84,0,0
71176.3,64.4527,-1644.59,0,0
72478,58.8994,-1612.61,0,0
73779.6,57.4572,-1576.7,0,0
75081.2,59.4628,-1543.24,0,0
76382.825,61.851,-1514.22,0,0
77684.45,65.0293,-1486.59,0,0
78986.075,63.7281,-1463.95,0,0
80287.7,60.9538,-1437.05,0,0
81589.325,60.4192,-1411.1,0,0
82890.95,59.1729,-1386.18,0,0
84192.575,57.8949,-1361.28,0,0
85494.2,56.8817,-1336.89,0,0
86795.825,56.0095,-1313.29,0,0
88097.45,54.5837,-1290.35,0,0
89399.075,53.3645,-1266.19,0,0
90700.7,53.2609,-1242.96,0,0
92002.3,53.54,-1219.73,0,0
93303.9,54.8658,-1198.69,0,0
94605.6,53.4509,-1178.71,0,0
95907.2,52.6789,-1156.11,0,0
97208.8,53.322,-1134.39,0,0
98510.4,54.671,-1112.8,0,0
99812.1,57.0369,-1091.77,0,0
101114,61.0103,-1073.38,0,0
102415,60.112,-1058.5,0,0
103717,57.6399,-1035.73,0,0
105019,61.0889,-1012.02,0,0
106320.175,67.5299,-991.264,0,0
107621.8,74.3132,-973.167,0,0
108923.425,82.6697,-956.087,0,0
110225.05,91.2236,-943.073,0,0
111526.675,97.6059,-932.315,0,0
112828.3,103.068,-922.262,0,0
114129.925,106.66,-913.56,0,0
115431.55,108.813,-905.453,0,0
116733.175,108.784,-897.084,0,0
118034.8,106.962,-886.689,0,0
119336.425,108.15,-873.236,0,0
120638.05,113.136,-868.315,0,0
121939.675,105.809,-862.104,0,0
123241,101.019,-849.804,0,0
124543,98.0589,-836.713,0,0
125845,96.7365,-824.949,0,0
127146,93.6868,-814.414,0,0
128448,88.3084,-804.179,0,0
129749,80.8119,-789.335,0,0
131051,75.4862,-771.515,0,0
132353,72.6594,-752.691,0,0
133654,71.4946,-733.782,0,0
134956,71.8544,-714.871,0,0
136258,73.6002,-696.37,0,0
137559,75.5685,-678.841,0,0
138860.775,77.518,-660.219,0,0
140162.4,80.9846,-641.227,0,0
141464.025,86.0873,-622.105,0,0
142765.65,91.9379,-603.88,0,0
144067.275,98.4833,-585.673,0,0
145368.9,105.917,-567.133,0,0
146670.525,114.93,-548.545,0,0
147972.15,125.3,-530.298,0,0
149273.775,137.002,-512.219,0,0
150575.4,151.468,-493.455,0,0
151877.025,169.708,-475.958,0,0
153178.65,192.386,-463.081,0,0
154480,214.25,-457.717,0,0
155782,231.877,-453.886,0,0
157084,247.606,-450.576,0,0
158385,262.637,-446.216,0,0
159687,283.155,-445.071,0,0
160988,297.81,-450.054,0,0
162290,307.921,-454.762,0,0
163592,312.267,-456.391,0,0
164893,318.565,-448.774,0,0
166195,334.775,-437.768,0,0
167497,363.076,-436.938,0,0
168798,391.271,-449.052,0,0
170100,414.011,-478.556,0,0
171401.375,413.254,-518.204,0,0
172703.0,389.994,-548.972,0,0
174004.625,356.188,-558.088,0,0
175306.25,325.606,-549.549,0,0
176607.875,305.337,-528.473,0,0
177909.5,296.214,-504.815,0,0
179211.125,295.077,-481.7,0,0
180512.75,298.837,-462.784,0,0
181814.375,302.866,-446.667,0,0
183116.0,305.221,-430.132,0,0
184417.625,308.885,-409.599,0,0
185719.25,316.156,-387.711,0,0
187021,325.418,-363.048,0,0
188322,340.214,-335.557,0,0
189624,361.093,-306.417,0,0
190926,390.499,-276.701,0,0
192227,429.873,-248.914,0,0
193529,479.003,-227.868,0,0
194831,534.213,-214.843,0,0
196132,596.325,-208.395,0,0
197434,668.778,-212.249,0,0
198735,751.208,-232.942,0,0
200037,838.024,-286.109,0,0
201339,906.105,-370.634,0,0
202640.35,943.101,-469.53,0,0
203941.975,950.962,-573.577,0,0
205243.6,934.404,-667.115,0,0
206545.225,901.521,-752.502,0,0
207846.85,846.215,-826.607,0,0
209148.475,776.419,-876.229,0,0
210450.1,709.331,-898.53,0,0
211751.725,652.77,-905.542,0,0
213053.35,604.69,-903.814,0,0
214354.975,571.734,-893.094,0,0
215656.6,549.976,-892.484,0,0
216958.225,524.46,-893.822,0,0
218259.85,501.781,-894.611,0,0
219561,478.957,-897.572,0,0
220863,452.929,-897.935,0,0
222165,429.589,-895.215,0,0
223466,409.664,-890.925,0,0
224768,390.225,-890.631,0,0
226070,367.483,-890.873,0,0
227371,341.207,-887.942,0,0
228673,314.013,-878.619,0,0
229974,290.852,-864.273,0,0
231276,271.514,-848.161,0,0
232578,256.193,-831.198,0,0
233879,243.443,-813.749,0,0
235180.95,234.467,-797.485,0,0
236482.575,226.084,-781.984,0,0
237784.2,220.641,-766.068,0,0
239085.825,217.797,-752.11,0,0
240387.45,215.977,-740.375,0,0
241689.075,214.867,-730.927,0,0
242990.7,212.668,-723.651,0,0
244292.325,208.209,-717.119,0,0
245593.95,202.629,-708.976,0,0
246895.575,197.063,-699.072,0,0
248197.2,193.281,-687.888,0,0
249498.825,191.587,-677.096,0,0
250800,190.629,-668.358,0,0
252102,187.598,-659.969,0,0
253404,184.269,-649.628,0,0
254705,180.563,-637.867,0,0
256007,178.69,-622.023,0,0
257309,181.449,-603.939,0,0
258610,189.913,-585.9,0,0
259912,204.641,-571.033,0,0
261213,222.444,-560.884,0,0
262515,244.081,-555.992,0,0
263817,265.975,-561.477,0,0
265118,281.981,-570.797,0,0
266420,297.977,-583.57,0,0
267721.55,309.57,-605.458,0,0
269023.175,308.608,-631.156,0,0
270324.8,296.968,-649.585,0,0
271626.425,285.551,-661.614,0,0
272928.05,271.809,-670.377,0,0
274229.675,260.266,-677.627,0,0
275531.3,243.741,-685.444,0,0
276832.925,221.634,-686.134,0,0
278134.55,201.867,-675.516,0,0
279436.175,193.879,-660.685,0,0
280737.8,190.215,-652.113,0,0
282039.425,187.403,-643.7,0,0
283341,187.207,-637.781,0,0
284643,186.339,-636.076,0,0
285944,180.083,-635.471,0,0
287246,172.89,-628.904,0,0
288548,167.01,-619.077,0,0
289849,167.532,-605.75,0,0
291151,176.29,-595.565,0,0
292452,188.336,-594.404,0,0
293754,197.268,-601.245,0,0
295056,199.284,-613.242,0,0
296357,192.235,-623.659,0,0
297659,181.937,-628.029,0,0
298960.525,172.448,-628.908,0,0
300262.15,163.275,-627.943,0,0
301563.775,154.998,-625.134,0,0
302865.4,147.477,-621.802,0,0
304167.025,140.222,-617.151,0,0
305468.65,134.156,-611.5,0,0
306770.275,129.527,-605.053,0,0
308071.9,127.05,-599.12,0,0
309373.525,124.868,-595.187,0,0
310675.15,121.52,-591.267,0,0
311976.775,118.455,-586.572,0,0
313278.4,116.379,-581.665,0,0
314580,114.88,-577.815,0,0
315882,113.383,-574.175,0,0
317183,112.148,-571.072,0,0
318485,110.938,-568.676,0,0
319787,109.153,-567.705,0,0
321088,105.344,-567.129,0,0
322390,99.6514,-565.687,0,0
323691,92.9684,-561.496,0,0
324993,87.8885,-555.355,0,0
326295,84.1246,-548.764,0,0
327596,81.335,-542.129,0,0
328898,79.0016,-535.202,0,0
330200,78.3323,-527.694,0,0
331501.125,79.512,-521.236,0,0
332802.75,81.2559,-517.257,0,0
334104.375,81.256,-514.611,0,0
335406.0,79.762,-511.479,0,0
336707.625,77.9669,-507.302,0,0
338009.25,76.2973,-502.224,0,0
339310.875,75.2653,-495.923,0,0
340612.5,76.1455,-489.126,0,0
341914.125,78.944,-483.082,0,0
343215.75,83.052,-479.197,0,0
344517.375,86.7907,-477.714,0,0
345819.0,88.9133,-477.536,0,0
347121,89.4482,-477.837,0,0
348422,88.6391,-477.448,0,0
349724,87.3119,-476.574,0,0
351025,85.1863,-474.985,0,0
352327,83.1437,-471.944,0,0
353629,82.1331,-468.478,0,0
354930,81.4581,-465.5,0,0
356232,80.883,-462.195,0,0
357534,80.8128,-459.256,0,0
358835,80.1924,-456.803,0,0
360137,79.0164,-453.659,0,0
361438,78.4754,-449.781,0,0
362740.1,78.4349,-446.007,0,0
364041.725,78.6693,-442.245,0,0
365343.35,79.0938,-438.489,0,0
366644.975,79.5259,-434.417,0,0
367946.6,80.8931,-429.664,0,0
369248.225,83.521,-425.072,0,0
370549.85,87.8566,-420.919,0,0
371851.475,93.9082,-419.106,0,0
373153.1,99.2668,-420.676,0,0
374454.725,101.867,-424.039,0,0
375756.35,102.106,-426.747,0,0
377057.975,101.155,-428.434,0,0
378359.6,100.373,-428.895,0,0
379661,99.7635,-429.717,0,0
380963,98.3503,-430.081,0,0
382264,97.7377,-429.918,0,0
383566,97.5257,-430.661,0,0
384868,96.1567,-433.114,0,0
386169,91.7798,-435.018,0,0
387471,86.1695,-433.891,0,0
388773,82.3298,-430.267,0,0
390074,81.1065,-426.527,0,0
391376,80.8766,-425.13,0,0
392677,78.9487,-424.976,0,0
393979,75.4926,-424.156,0,0
395280.7,71.5171,-421.833,0,0
396582.325,67.8342,-418.425,0,0
397883.95,64.7267,-414.17,0,0
399185.575,62.3653,-409.179,0,0
400006.6,61.3811,-405.817,0,0