Folder: ML_Dmg_Mehdi_Dataset/Accelerated corrosion test data/2025-10-02_18-00-03

Note: README.md
# ML_Dmg_Mehdi_Dataset

File: sample_1.csv
Frequency (Hz),Impedance (ohms),Phase (Radians),Temperature (C),Humidity (%)
10000.0,244.001,-12145,0,0
11301.625,218.661,-10757.3,0,0
12603.25,201.933,-9662.78,0,0
13904.875,184.832,-8742.47,0,0
15206.5,184.454,-8020.7,0,0
16508.125,158.279,-7391.87,0,0
17809.75,150.986,-6860.02,0,0
19111.375,137.185,-6391.92,0,0
20413.0,159.151,-5954.72,0,0
21714.625,137.592,-5641.33,0,0
23016.25,123.476,-5334.35,0,0
24317.875,113.547,-5043.74,0,0
25619.5,106.513,-4781.23,0,0
26921.1,114.685,-4536.11,0,0
28222.7,111.196,-4331.13,0,0
29524.4,106.049,-4164.35,0,0
30826,101.688,-3979.67,0,0
32127.6,99.0495,-3821.8,0,0
33429.2,89.0743,-3678.72,0,0
34730.9,82.6342,-3537.52,0,0
36032.5,79.005,-3406.87,0,0
37334.1,75.4086,-3285.78,0,0
38635.7,73.2676,-3172.49,0,0
39937.4,73.0442,-3066.48,0,0
41239,72.6608,-2968.14,0,0
42540.6,72.397,-2876.55,0,0
43842.225,69.9207,-2789.14,0,0
45143.85,68.6723,-2708.07,0,0
46445.475,66.9747,-2632.57,0,0
47747.1,64.8434,-2559.53,0,0
49048.725,61.7061,-2489.45,0,0
50350.35,59.9022,-2423.05,0,0
51651.975,58.8174,-2359.97,0,0
52953.6,57.9676,-2299.19,0,0
54255.225,56.9354,-2242.39,0,0
55556.85,56.2739,-2187.37,0,0
56858.475,55.2317,-2134.59,0,0
58160.1,54.9735,-2084.28,0,0
59461.7,54.9248,-2036.58,0,0
60763.3,54.8458,-1990.94,0,0
62065,53.2858,-1947.09,0,0
63366.6,52.5429,-1903.51,0,0
64668.2,53.2307,-1861.98,0,0
65969.8,55.5502,-1824.19,0,0
67271.5,53.9827,-1787.33,0,0
68573.1,53.6321,-1752.24,0,0
69874.7,52.2783,-1718.66,0,0
71176.3,50.7561,-1684.2,0,0
72478,48.8757,-1650.62,0,0
73779.6,48.3823,-1617.25,0,0
75081.2,48.6462,-1585.24,0,0
76382.825,49.8338,-1554.33,0,0
77684.45,50.6505,-1524.95,0,0
78986.075,52.8603,-1497.59,0,0
80287.7,51.334,-1471.07,0,0
81589.325,52.2811,-1443.69,0,0
82890.95,52.1795,-1416.55,0,0
84192.575,54.0188,-1390.76,0,0
85494.2,55.5882,-1366.6,0,0
86795.825,56.6996,-1343.1,0,0
88097.45,57.217,-1320.26,0,0
89399.075,58.3599,-1295.73,0,0
90700.7,62.2612,-1272.54,0,0
92002.3,68.9171,-1251.84,0,0
93303.9,76.0626,-1235.52,0,0
94605.6,74.0695,-1227.46,0,0
95907.2,67.0185,-1209.38,0,0
97208.8,64.0871,-1188.37,0,0
98510.4,63.8523,-1168.26,0,0
99812.1,63.6895,-1147.73,0,0
101114,63.9577,-1128.67,0,0
102415,63.7581,-1106.5,0,0
103717,68.5235,-1085.28,0,0
105019,75.6971,-1067.54,0,0
106320.175,82.99,-1052.17,0,0
107621.8,89.0456,-1040.86,0,0
108923.425,93.7412,-1030.9,0,0
110225.05,94.5789,-1022.38,0,0
111526.675,94.3369,-1010.78,0,0
112828.3,95.3626,-1001.05,0,0
114129.925,93.478,-992.68,0,0
115431.55,89.2842,-982.248,0,0
116733.175,84.2315,-968.605,0,0
118034.8,81.118,-953.045,0,0
119336.425,80.3672,-937.211,0,0
120638.05,81.7757,-923.134,0,0
121939.675,80.9048,-911.07,0,0
123241,79.3887,-896.693,0,0
124543,79.6868,-881.77,0,0
125845,80.6583,-867.416,0,0
127146,82.1115,-853.439,0,0
128448,84.1606,-838.654,0,0
129749,87.4249,-824.734,0,0
131051,92.4504,-812.626,0,0
132353,96.2886,-802.546,0,0
133654,98.9956,-792.835,0,0
134956,100.528,-782.5,0,0
136258,103.147,-771.657,0,0
137559,107.025,-761.676,0,0
138860.775,108.994,-754.691,0,0
140162.4,108.776,-745.902,0,0
141464.025,109.283,-735.119,0,0
142765.65,110.718,-724.903,0,0
144067.275,111.522,-714.165,0,0
145368.9,113.296,-702.528,0,0
146670.525,116,-691.836,0,0
147972.15,118.578,-682.33,0,0
149273.775,119.923,-672.392,0,0
150575.4,121.355,-662.351,0,0
151877.025,121.174,-650.184,0,0
153178.65,123.004,-635.454,0,0
154480,126.521,-619.222,0,0
155782,135.468,-602.399,0,0
157084,147.619,-588.759,0,0
158385,159.687,-579.404,0,0
159687,172.119,-568.462,0,0
160988,190.147,-559.957,0,0
162290,207.047,-559.909,0,0
163592,221.343,-562.447,0,0
164893,232.767,-566.167,0,0
166195,244.399,-576.631,0,0
167497,245.463,-589.188,0,0
168798,240.297,-598.153,0,0
170100,230.849,-600.588,0,0
171401.375,224.91,-597.378,0,0
172703.0,218.617,-592.836,0,0
174004.625,215.278,-585.019,0,0
175306.25,216.678,-578.763,0,0
176607.875,216.259,-575.52,0,0
177909.5,214.404,-571.744,0,0
179211.125,212.274,-568.861,0,0
180512.75,206.722,-565.441,0,0
181814.375,199.676,-558.019,0,0
183116.0,191.898,-546.234,0,0
184417.625,188.755,-531.01,0,0
185719.25,188.445,-515.875,0,0
187021,190.063,-500.716,0,0
188322,192.705,-485.96,0,0
189624,197.159,-469.072,0,0
190926,203.829,-454.025,0,0
192227,210.946,-438.64,0,0
193529,218.597,-421.799,0,0
194831,229.116,-403.473,0,0
196132,243.914,-384.389,0,0
197434,263.451,-365.854,0,0
198735,285.125,-351.528,0,0
200037,308.614,-335.828,0,0
201339,339.816,-320.336,0,0
202640.35,378.547,-310.738,0,0
203941.975,423.657,-309.727,0,0
205243.6,473.908,-326.316,0,0
206545.225,512.045,-359.487,0,0
207846.85,533.842,-399.947,0,0
209148.475,540.554,-437.666,0,0
210450.1,534.675,-465.161,0,0
211751.725,526.553,-477.376,0,0
213053.35,531.716,-479.814,0,0
214354.975,544.883,-487.897,0,0
215656.6,558.271,-503.535,0,0
216958.225,568.894,-515.361,0,0
218259.85,587.495,-532.028,0,0
219561,607.941,-552.456,0,0
220863,630.12,-584.855,0,0
222165,646.455,-629.389,0,0
223466,650.415,-683.236,0,0
224768,637.336,-740.317,0,0
226070,608.092,-792.776,0,0
227371,565.938,-833.682,0,0
228673,518.374,-859.636,0,0
229974,470.051,-872.792,0,0
231276,426.186,-873.594,0,0
232578,391.143,-868.773,0,0
233879,360.691,-862.408,0,0
235180.95,333.801,-855.32,0,0
236482.575,309.538,-846.1,0,0
237784.2,288.582,-837.578,0,0
239085.825,266.991,-828.977,0,0
240387.45,246.774,-816.551,0,0
241689.075,230.508,-803.06,0,0
242990.7,217.111,-789.949,0,0
244292.325,205.513,-778.247,0,0
245593.95,193.759,-766.735,0,0
246895.575,182.821,-754.365,0,0
248197.2,174.487,-741.21,0,0
249498.825,166.486,-728.599,0,0
250800,158.648,-716.567,0,0
252102,152.842,-704.142,0,0
253404,147.762,-691.626,0,0
254705,144.295,-678.395,0,0
256007,142.677,-665.865,0,0
257309,142.214,-654.024,0,0
258610,142.971,-642.7,0,0
259912,145.638,-631.952,0,0
261213,149.786,-622.955,0,0
262515,154.875,-616.267,0,0
263817,160.884,-611.297,0,0
265118,167.425,-610.238,0,0
266420,171.67,-613.438,0,0
267721.55,170.557,-619.313,0,0
269023.175,163.013,-622.576,0,0
270324.8,153.659,-619.831,0,0
271626.425,146.485,-612.999,0,0
272928.05,142.885,-604.308,0,0
274229.675,141.996,-596.389,0,0
275531.3,142.727,-589.634,0,0
276832.925,144.598,-584.024,0,0
278134.55,147.079,-580.682,0,0
279436.175,149.158,-579.373,0,0
280737.8,148.813,-579.641,0,0
282039.425,146.514,-579.295,0,0
283341,142.62,-577.863,0,0
284643,138.858,-574.979,0,0
285944,134.254,-571.183,0,0
287246,129.447,-564.985,0,0
288548,127.164,-555.778,0,0
289849,129.488,-547.907,0,0
291151,131.646,-543.337,0,0
292452,132.722,-539.107,0,0
293754,133.302,-534.551,0,0
295056,134.075,-528.496,0,0
296357,137.806,-521.595,0,0
297659,143.327,-517.264,0,0
298960.525,149.039,-514.253,0,0
300262.15,155.463,-513.076,0,0
301563.775,161.508,-512.995,0,0
302865.4,167.713,-515.115,0,0
304167.025,172.936,-519.443,0,0
305468.65,175.77,-524.421,0,0
306770.275,178.214,-529.96,0,0
308071.9,179.073,-537.002,0,0
309373.525,177.317,-544.349,0,0
310675.15,173.893,-551.343,0,0
311976.775,168.196,-557.865,0,0
313278.4,160.211,-562.452,0,0
314580,151.914,-564.475,0,0
315882,143.91,-565.341,0,0
317183,135.497,-564.932,0,0
318485,127.646,-562.654,0,0
319787,120.77,-559.868,0,0
321088,113.945,-556.075,0,0
322390,107.749,-551,0,0
323691,103.272,-544.976,0,0
324993,100.749,-539.098,0,0
326295,99.4727,-534.399,0,0
327596,98.6118,-530.686,0,0
328898,97.6974,-528.225,0,0
330200,96.238,-526.416,0,0
331501.125,94.0391,-525.121,0,0
332802.75,90.8193,-523.7,0,0
334104.375,87.0462,-521.594,0,0
335406.0,83.1021,-518.801,0,0
336707.625,79.4132,-515.171,0,0
338009.25,76.1055,-511.254,0,0
339310.875,73.1495,-507.088,0,0
340612.5,70.5992,-502.724,0,0
341914.125,68.5479,-498.674,0,0
343215.75,66.4253,-494.492,0,0
344517.375,64.3084,-490.367,0,0
345819.0,62.3381,-485.956,0,0
347121,60.611,-481.362,0,0
348422,59.2309,-476.585,0,0
349724,58.2501,-471.709,0,0
351025,57.8432,-467.106,0,0
352327,57.5781,-462.714,0,0
353629,57.4242,-458.517,0,0
354930,57.4829,-454.306,0,0
356232,57.8573,-450.397,0,0
357534,58.3011,-446.839,0,0
358835,58.6195,-443.55,0,0
360137,58.7609,-440.067,0,0
361438,59.1807,-436.786,0,0
362740.1,59.4125,-433.613,0,0
364041.725,59.602,-430.303,0,0
365343.35,59.9778,-426.804,0,0
366644.975,60.4898,-423.363,0,0
367946.6,60.9053,-419.701,0,0
369248.225,62.0386,-415.262,0,0
370549.85,64.5224,-411.272,0,0
371851.475,67.6193,-408.263,0,0
373153.1,71.037,-406.342,0,0
374454.725,74.1702,-405.738,0,0
375756.35,76.1467,-405.709,0,0
377057.975,77.8223,-405.52,0,0
378359.6,79.2992,-405.71,0,0
379661,80.1797,-406.18,0,0
380963,81.1018,-406.442,0,0
382264,81.8776,-408.012,0,0
383566,80.7567,-409.93,0,0
384868,78.3622,-410.959,0,0
386169,75.5947,-410.899,0,0
387471,72.5356,-409.823,0,0
388773,70.0204,-407.538,0,0
390074,68.5983,-405.077,0,0
391376,67.6534,-403.152,0,0
392677,66.3618,-401.811,0,0
393979,64.2932,-400.124,0,0
395280.7,62.1099,-397.765,0,0
396582.325,60.279,-394.725,0,0
397883.95,58.892,-391.342,0,0
399185.575,57.7609,-387.805,0,0
400006.6,57.3562,-385.451,0,0

File: sample_2.csv
Frequency (Hz),Impedance (ohms),Phase (Radians),Temperature (C),Humidity (%)
10000.0,224.603,-11319,0,0
11301.625,199.511,-10024.4,0,0
12603.25,179.869,-8999.78,0,0
13904.875,179.586,-8167.42,0,0
15206.5,158.802,-7478,0,0
16508.125,140.803,-6889.32,0,0
17809.75,130.337,-6386.64,0,0
19111.375,126.623,-5951.9,0,0
20413.0,116.489,-5572.02,0,0
21714.625,125.029,-5244.93,0,0
23016.25,109.81,-4952.53,0,0
24317.875,101.016,-4689.34,0,0
25619.5,95.3453,-4448.49,0,0
26921.1,93.7557,-4231.95,0,0
28222.7,88.7379,-4034.53,0,0
29524.4,92.2888,-3852.38,0,0
30826,86.6726,-3698.88,0,0
32127.6,81.0884,-3547.25,0,0
33429.2,78.6914,-3409.71,0,0
34730.9,74.6365,-3280.45,0,0
36032.5,72.3147,-3160.46,0,0
37334.1,70.2772,-3048.15,0,0
38635.7,68.13,-2944.13,0,0
39937.4,66.3244,-2846.06,0,0
41239,65.0666,-2754.34,0,0
42540.6,63.5452,-2668.6,0,0
43842.225,62.4435,-2587.2,0,0
45143.85,61.1145,-2510.65,0,0
46445.475,60.4914,-2438.59,0,0
47747.1,60.0756,-2370.16,0,0
49048.725,60.0162,-2306.51,0,0
50350.35,57.3832,-2244.89,0,0
51651.975,56.4061,-2186.68,0,0
52953.6,54.6238,-2129.95,0,0
54255.225,53.9236,-2075.77,0,0
55556.85,53.5677,-2024.33,0,0
56858.475,53.4662,-1974.87,0,0
58160.1,53.735,-1928.15,0,0
59461.7,54.2733,-1882.69,0,0
60763.3,55.6903,-1840.39,0,0
62065,58.4647,-1802.99,0,0
63366.6,55.6203,-1766.29,0,0
64668.2,52.3741,-1728.67,0,0
65969.8,50.3177,-1689.71,0,0
67271.5,51.1481,-1652.6,0,0
68573.1,53.2903,-1619.14,0,0
69874.7,55.5495,-1589.47,0,0
71176.3,52.4525,-1561.14,0,0
72478,47.3123,-1530.76,0,0
73779.6,44.9484,-1498.17,0,0
75081.2,45.0307,-1466.33,0,0
76382.825,46.8799,-1436.37,0,0
77684.45,49.5493,-1408.44,0,0
78986.075,52.7965,-1384.43,0,0
80287.7,51.5408,-1363.04,0,0
81589.325,49.0613,-1338.22,0,0
82890.95,47.8746,-1312.77,0,0
84192.575,48.724,-1288.16,0,0
85494.2,49.5065,-1264.92,0,0
86795.825,50.2341,-1243.01,0,0
88097.45,50.8907,-1222.06,0,0
89399.075,51.0808,-1200.74,0,0
90700.7,51.3081,-1180.46,0,0
92002.3,52.9652,-1159.63,0,0
93303.9,55.8356,-1141.5,0,0
94605.6,55.3494,-1124.97,0,0
95907.2,55.1841,-1105.44,0,0
97208.8,57.5819,-1089.42,0,0
98510.4,57.4882,-1075.71,0,0
99812.1,52.5365,-1061.01,0,0
101114,49.5721,-1043.02,0,0
102415,47.0503,-1023.1,0,0
103717,45.9672,-1002.03,0,0
105019,49.4325,-982.326,0,0
106320.175,54.4357,-965.67,0,0
107621.8,57.0733,-953.812,0,0
108923.425,55.5224,-941.741,0,0
110225.05,52.3798,-925.988,0,0
111526.675,51.495,-908.578,0,0
112828.3,52.0928,-891.358,0,0
114129.925,54.084,-874.28,0,0
115431.55,56.7872,-858.353,0,0
116733.175,60.2518,-843.331,0,0
118034.8,63.8728,-829.931,0,0
119336.425,67.0928,-817.569,0,0
120638.05,69.153,-807.536,0,0
121939.675,68.3125,-795.898,0,0
123241,67.8169,-782.82,0,0
124543,67.4139,-769.228,0,0
125845,67.5724,-754.533,0,0
127146,69.1703,-739.579,0,0
128448,72.1076,-725.421,0,0
129749,74.7594,-712.368,0,0
131051,77.0464,-699.872,0,0
132353,78.5891,-687.416,0,0
133654,79.6668,-673.878,0,0
134956,81.3471,-659.617,0,0
136258,83.4543,-645.073,0,0
137559,86.3312,-630.256,0,0
138860.775,89.0379,-615.08,0,0
140162.4,92.1504,-598.081,0,0
141464.025,98.171,-579.389,0,0
142765.65,107.8,-561.628,0,0
144067.275,118.646,-546.067,0,0
145368.9,130.678,-531.1,0,0
146670.525,144.076,-516.855,0,0
147972.15,160.869,-503.2,0,0
149273.775,182.88,-491.294,0,0
150575.4,209.84,-490.991,0,0
151877.025,230.171,-503.324,0,0
153178.65,236.083,-519.569,0,0
154480,231.899,-528.294,0,0
155782,226.858,-529.115,0,0
157084,223.114,-526.185,0,0
158385,220.613,-521.186,0,0
159687,219.307,-512.848,0,0
160988,223.408,-504.958,0,0
162290,232.752,-504.881,0,0
163592,226.979,-514.399,0,0
164893,212.034,-510.294,0,0
166195,197.675,-495.734,0,0
167497,191.525,-475.994,0,0
168798,188.32,-453.37,0,0
170100,191.195,-431.173,0,0
171401.375,195.068,-407.637,0,0
172703.0,204.511,-382.645,0,0
174004.625,218.914,-358.163,0,0
175306.25,240.369,-335.144,0,0
176607.875,265.613,-317.667,0,0
177909.5,296.862,-311.963,0,0
179211.125,315.299,-312.38,0,0
180512.75,323.401,-312.983,0,0
181814.375,327.979,-296.228,0,0
183116.0,345.083,-272.005,0,0
184417.625,371.784,-249.119,0,0
185719.25,409.47,-230.813,0,0
187021,447.786,-223.317,0,0
188322,490.551,-218.304,0,0
189624,531.204,-215.995,0,0
190926,579.295,-211.555,0,0
192227,642.604,-218.918,0,0
193529,711.92,-247.528,0,0
194831,769.468,-296.524,0,0
196132,815.621,-357.558,0,0
197434,851.459,-426.188,0,0
198735,873.564,-502.811,0,0
200037,873.865,-586.2,0,0
201339,857.529,-669.565,0,0
202640.35,814.976,-743.862,0,0
203941.975,758.293,-790.853,0,0
205243.6,709.918,-823.569,0,0
206545.225,655.157,-844.033,0,0
207846.85,611.332,-851.162,0,0
209148.475,577.887,-856.238,0,0
210450.1,541.664,-866.972,0,0
211751.725,499.417,-867.677,0,0
213053.35,465.96,-856.924,0,0
214354.975,439.908,-844.708,0,0
215656.6,418.501,-833.268,0,0
216958.225,400.764,-820.219,0,0
218259.85,388.055,-807.37,0,0
219561,379.13,-796.031,0,0
220863,372.773,-786.641,0,0
222165,370.421,-778.792,0,0
223466,370.321,-777.436,0,0
224768,366.578,-779.537,0,0
226070,361.722,-781.422,0,0
227371,357.412,-785.975,0,0
228673,351.189,-793.67,0,0
229974,339.284,-803.627,0,0
231276,322.104,-810.684,0,0
232578,303.043,-813.008,0,0
233879,284.169,-812.005,0,0
235180.95,265.952,-809.125,0,0
236482.575,247.906,-803.305,0,0
237784.2,231.216,-795.498,0,0
239085.825,216.772,-786.011,0,0
240387.45,203.827,-775.79,0,0
241689.075,192.965,-764.768,0,0
242990.7,183.869,-754.52,0,0
244292.325,175.795,-745.49,0,0
245593.95,167.123,-737.509,0,0
246895.575,156.015,-729.596,0,0
248197.2,144.426,-717.382,0,0
249498.825,135.053,-702.884,0,0
250800,128.587,-686.905,0,0
252102,124.845,-671.084,0,0
253404,123.364,-655.489,0,0
254705,123.809,-640.423,0,0
256007,126.724,-626.045,0,0
257309,131.705,-613.358,0,0
258610,138.108,-602.885,0,0
259912,145.482,-593.886,0,0
261213,154.238,-587.31,0,0
262515,163.302,-584.631,0,0
263817,170.614,-584.804,0,0
265118,174.517,-587.665,0,0
266420,174.205,-588.905,0,0
267721.55,173.943,-587.657,0,0
269023.175,172.857,-585.414,0,0
270324.8,172.77,-579.204,0,0
271626.425,178.204,-572.515,0,0
272928.05,187.204,-568.617,0,0
274229.675,200.621,-569.29,0,0
275531.3,213.745,-581.033,0,0
276832.925,216.463,-600.324,0,0
278134.55,207.693,-616.295,0,0
279436.175,195.523,-625.245,0,0
280737.8,183.153,-630.395,0,0
282039.425,169.745,-633.385,0,0
283341,154.085,-632.17,0,0
284643,142.485,-625.608,0,0
285944,130.688,-619.978,0,0
287246,118.49,-608.909,0,0
288548,111.835,-591.27,0,0
289849,116.385,-572.642,0,0
291151,130.204,-563.723,0,0
292452,141.925,-566.081,0,0
293754,145.068,-575.18,0,0
295056,140.196,-577.084,0,0
296357,143.449,-578.152,0,0
297659,140.238,-587.382,0,0
298960.525,131.043,-590.486,0,0
300262.15,122.481,-590.354,0,0
301563.775,114.979,-587.079,0,0
302865.4,110.98,-583.797,0,0
304167.025,106.404,-583.551,0,0
305468.65,98.9321,-582.783,0,0
306770.275,90.6012,-579.1,0,0
308071.9,83.6489,-573.452,0,0
309373.525,77.9325,-567.22,0,0
310675.15,73.2535,-560.566,0,0
311976.775,69.7357,-553.633,0,0
313278.4,67.2314,-547.169,0,0
314580,65.1099,-541.071,0,0
315882,63.2485,-535.259,0,0
317183,61.8311,-529.442,0,0
318485,61.0045,-524.098,0,0
319787,60.077,-519.243,0,0
321088,58.9316,-514.433,0,0
322390,57.7562,-509.589,0,0
323691,56.3326,-504.061,0,0
324993,56.0305,-497.476,0,0
326295,58.1753,-491.267,0,0
327596,61.1402,-487.809,0,0
328898,62.7956,-485.541,0,0
330200,63.8992,-483.76,0,0
331501.125,64.3019,-482.626,0,0
332802.75,63.3183,-481.908,0,0
334104.375,61.0926,-480.053,0,0
335406.0,58.8594,-477.106,0,0
336707.625,56.9437,-473.389,0,0
338009.25,55.5762,-469.152,0,0
339310.875,54.7481,-464.81,0,0
340612.5,54.5352,-460.535,0,0
341914.125,54.6088,-456.28,0,0
343215.75,55.0394,-452.182,0,0
344517.375,55.8819,-448.299,0,0
345819.0,56.9228,-444.782,0,0
347121,58.1878,-441.554,0,0
348422,59.4611,-438.62,0,0
349724,61.0808,-435.877,0,0
351025,62.7996,-433.863,0,0
352327,63.9994,-432.367,0,0
353629,65.0182,-430.777,0,0
354930,65.9091,-429.348,0,0
356232,66.5815,-427.863,0,0
357534,67.6358,-426.267,0,0
358835,69.0087,-425.332,0,0
360137,70.1269,-425.485,0,0
361438,70.058,-425.924,0,0
362740.1,69.3363,-426.082,0,0
364041.725,67.9974,-426.004,0,0
365343.35,66.1886,-425.178,0,0
366644.975,64.4762,-423.54,0,0
367946.6,63.5393,-421.43,0,0
369248.225,63.2552,-419.931,0,0
370549.85,62.503,-419.021,0,0
371851.475,61.2664,-417.824,0,0
373153.1,60.0646,-416.418,0,0
374454.725,58.8161,-415.118,0,0
375756.35,57.21,-413.598,0,0
377057.975,55.7952,-411.698,0,0
378359.6,54.5224,-410.402,0,0
379661,51.824,-408.683,0,0
380963,49.8443,-404.773,0,0
382264,49.9018,-402.009,0,0
383566,48.9896,-400.218,0,0
384868,47.5352,-398.029,0,0
386169,46.0113,-395.464,0,0
387471,44.4995,-392.284,0,0
388773,43.6544,-388.668,0,0
390074,43.7302,-385.151,0,0
391376,44.299,-382.756,0,0
392677,43.8662,-381.155,0,0
393979,42.3536,-378.896,0,0
395280.7,40.9961,-375.449,0,0
396582.325,40.471,-371.686,0,0
397883.95,40.5066,-367.958,0,0
399185.575,40.9024,-364.526,0,0
400006.6,41.2635,-362.513,0,0