Folder: ML_Dmg_Mehdi_Dataset/Accelerated corrosion test data/2025-10-14_08-28-47 (part 4)

File: sample_8.csv
Frequency (Hz),Impedance (ohms),Phase (Radians),Temperature (C),Humidity (%)
10000.0,311.437,-10975.6,0,0
11301.625,275.782,-9726.74,0,0
12603.25,253.634,-8734.53,0,0
13904.875,225.287,-7933.49,0,0
15206.5,205.116,-7259.4,0,0
16508.125,189.092,-6692.57,0,0
17809.75,175.638,-6205.85,0,0
19111.375,167.772,-5783.1,0,0
20413.0,160.68,-5421.64,0,0
21714.625,149.713,-5101.39,0,0
23016.25,144.074,-4819.2,0,0
24317.875,132.68,-4562.01,0,0
25619.5,125.562,-4328.83,0,0
26921.1,120.667,-4117.67,0,0
28222.7,117.542,-3928.32,0,0
29524.4,114.028,-3754.85,0,0
30826,109.563,-3597.22,0,0
32127.6,105.703,-3449.36,0,0
33429.2,105.112,-3312.44,0,0
34730.9,106.134,-3187.62,0,0
36032.5,108.585,-3076.25,0,0
37334.1,105.789,-2976.75,0,0
38635.7,96.3589,-2879.92,0,0
39937.4,88.0489,-2783.81,0,0
41239,85.62,-2692.87,0,0
42540.6,82.509,-2608.07,0,0
43842.225,81.8183,-2530.1,0,0
45143.85,77.7908,-2455.81,0,0
46445.475,74.9923,-2384.64,0,0
47747.1,72.9646,-2317.41,0,0
49048.725,70.8611,-2253.91,0,0
50350.35,68.9843,-2192.8,0,0
51651.975,68.1175,-2134.98,0,0
52953.6,67.6196,-2080.07,0,0
54255.225,66.6341,-2030.01,0,0
55556.85,63.534,-1980.71,0,0
56858.475,61.4283,-1931.74,0,0
58160.1,60.4513,-1885.17,0,0
59461.7,59.8057,-1841.21,0,0
60763.3,58.4462,-1798.66,0,0
62065,58.0096,-1757.65,0,0
63366.6,58.1416,-1718,0,0
64668.2,58.8817,-1681.35,0,0
65969.8,58.1526,-1646.71,0,0
67271.5,56.0853,-1612.23,0,0
68573.1,55.1141,-1578.18,0,0
69874.7,54.8868,-1544.96,0,0
71176.3,54.7915,-1513.45,0,0
72478,55.0766,-1483.61,0,0
73779.6,54.2898,-1454.64,0,0
75081.2,53.4791,-1426.09,0,0
76382.825,53.1881,-1398.14,0,0
77684.45,52.8564,-1371.29,0,0
78986.075,52.232,-1344.97,0,0
80287.7,51.8211,-1318.82,0,0
81589.325,51.7912,-1293.09,0,0
82890.95,52.6968,-1268.09,0,0
84192.575,53.9289,-1244.17,0,0
85494.2,54.9533,-1222.46,0,0
86795.825,54.3708,-1199.42,0,0
88097.45,55.144,-1176.93,0,0
89399.075,55.854,-1154.6,0,0
90700.7,57.677,-1132.02,0,0
92002.3,61.9584,-1110.78,0,0
93303.9,65.9146,-1092.85,0,0
94605.6,65.6034,-1075.25,0,0
95907.2,67.5563,-1055.39,0,0
97208.8,71.2247,-1036.12,0,0
98510.4,76.1416,-1018.71,0,0
99812.1,81.0748,-1004.36,0,0
101114,84.9676,-991.269,0,0
102415,86.8669,-979.94,0,0
103717,86.0224,-968.353,0,0
105019,85.2695,-954.899,0,0
106320.175,84.4797,-940.419,0,0
107621.8,84.7761,-926.612,0,0
108923.425,84.3056,-912.445,0,0
110225.05,85.399,-898.28,0,0
111526.675,86.1126,-885.437,0,0
112828.3,86.7543,-873.166,0,0
114129.925,86.6165,-861.424,0,0
115431.55,86.1841,-849.298,0,0
116733.175,84.402,-837.08,0,0
118034.8,83.9041,-823.593,0,0
119336.425,83.3171,-811.052,0,0
120638.05,81.8989,-798.137,0,0
121939.675,81.1164,-784.624,0,0
123241,80.6448,-771.115,0,0
124543,80.2456,-757.184,0,0
125845,80.4509,-743.351,0,0
127146,81.1653,-729.326,0,0
128448,82.2877,-715.859,0,0
129749,83.3069,-702.551,0,0
131051,84.5332,-688.97,0,0
132353,85.9009,-676.137,0,0
133654,86.8303,-663.169,0,0
134956,88.0196,-649.166,0,0
136258,91.0704,-635.833,0,0
137559,91.6922,-624.58,0,0
138860.775,90.7194,-609.588,0,0
140162.4,92.5572,-593.446,0,0
141464.025,95.2528,-577.481,0,0
142765.65,98.1341,-560.72,0,0
144067.275,102.714,-543.049,0,0
145368.9,109.17,-524.457,0,0
146670.525,118.522,-506.91,0,0
147972.15,128.522,-491.222,0,0
149273.775,139.955,-472.314,0,0
150575.4,158.299,-455.086,0,0
151877.025,183.583,-446.57,0,0
153178.65,200.519,-449.716,0,0
154480,208.1,-451.794,0,0
155782,218.226,-444.893,0,0
157084,225.286,-453.791,0,0
158385,220.667,-444.798,0,0
159687,232.337,-435.666,0,0
160988,232.522,-435.066,0,0
162290,238.061,-420.266,0,0
163592,252.049,-414.38,0,0
164893,261.595,-413.797,0,0
166195,264.836,-420.217,0,0
167497,254.306,-415.708,0,0
168798,250.484,-401.743,0,0
170100,250.901,-384,0,0
171401.375,253.064,-366.487,0,0
172703.0,262.527,-341.853,0,0
174004.625,278.763,-325.323,0,0
175306.25,286.569,-313.334,0,0
176607.875,296.128,-286.481,0,0
177909.5,316.457,-260.523,0,0
179211.125,345.522,-234.414,0,0
180512.75,386.139,-213.237,0,0
181814.375,431.815,-205.905,0,0
183116.0,475.026,-212.827,0,0
184417.625,504.185,-223.287,0,0
185719.25,533.34,-225.155,0,0
187021,567.733,-229.948,0,0
188322,602.805,-235.307,0,0
189624,640.616,-250.332,0,0
190926,674.385,-256.947,0,0
192227,723.106,-276.018,0,0
193529,769.002,-288.937,0,0
194831,843.393,-325.548,0,0
196132,908.912,-398.824,0,0
197434,945.171,-504.569,0,0
198735,934.845,-608.804,0,0
200037,907.545,-704.106,0,0
201339,846.311,-779.039,0,0
202640.35,772.624,-836.55,0,0
203941.975,695.583,-847.399,0,0
205243.6,640.102,-847.991,0,0
206545.225,586.049,-834.414,0,0
207846.85,563.913,-804.793,0,0
209148.475,556.718,-797.133,0,0
210450.1,547.792,-790.96,0,0
211751.725,544.745,-790.93,0,0
213053.35,543.141,-799.966,0,0
214354.975,535.237,-814.713,0,0
215656.6,521.933,-831.371,0,0
216958.225,501.102,-846.335,0,0
218259.85,477.125,-856.677,0,0
219561,451.334,-861.645,0,0
220863,424.937,-862.517,0,0
222165,401.594,-854.314,0,0
223466,387.047,-845.487,0,0
224768,378.653,-839.616,0,0
226070,372.157,-842.73,0,0
227371,357.583,-849.895,0,0
228673,337.615,-853.11,0,0
229974,318.413,-853.465,0,0
231276,295.596,-853.067,0,0
232578,271.875,-847.186,0,0
233879,249.091,-837.291,0,0
235180.95,227.853,-822.224,0,0
236482.575,212.681,-803.25,0,0
237784.2,202.852,-784.948,0,0
239085.825,197.43,-767.325,0,0
240387.45,196.432,-755.076,0,0
241689.075,192.617,-747.552,0,0
242990.7,184.702,-738.922,0,0
244292.325,178.283,-726.66,0,0
245593.95,174.655,-715.209,0,0
246895.575,172.151,-704.168,0,0
248197.2,169.378,-694.99,0,0
249498.825,165.794,-684.254,0,0
250800,164.61,-671.803,0,0
252102,167.698,-660.031,0,0
253404,172.686,-653.828,0,0
254705,173.052,-650.214,0,0
256007,171.668,-644.454,0,0
257309,170.547,-636.571,0,0
258610,172.05,-627.179,0,0
259912,176.623,-618.813,0,0
261213,182.269,-613.324,0,0
262515,188.072,-609.797,0,0
263817,191.735,-607.308,0,0
265118,194.889,-601.971,0,0
266420,203.476,-594.409,0,0
267721.55,220.416,-591.261,0,0
269023.175,240.603,-600.535,0,0
270324.8,254.039,-621.279,0,0
271626.425,255.572,-649.385,0,0
272928.05,242.519,-676.072,0,0
274229.675,217.149,-693.89,0,0
275531.3,188.711,-696.412,0,0
276832.925,167.079,-689.086,0,0
278134.55,151.765,-679.137,0,0
279436.175,139.996,-668.056,0,0
280737.8,133.578,-655.783,0,0
282039.425,131.228,-646.382,0,0
283341,129.631,-640.674,0,0
284643,126.273,-635.525,0,0
285944,124.728,-628.439,0,0
287246,127.648,-624.872,0,0
288548,128.069,-629.02,0,0
289849,120.234,-632.964,0,0
291151,109.644,-631.266,0,0
292452,100.595,-626.781,0,0
293754,92.5088,-620.377,0,0
295056,85.7159,-612.904,0,0
296357,80.728,-604.642,0,0
297659,76.8442,-596.764,0,0
298960.525,73.8052,-588.614,0,0
300262.15,71.872,-580.373,0,0
301563.775,71.5379,-572.276,0,0
302865.4,72.557,-565.501,0,0
304167.025,73.9645,-560.201,0,0
305468.65,75.2426,-555.978,0,0
306770.275,76.3696,-552.842,0,0
308071.9,77.0453,-550.408,0,0
309373.525,76.7787,-549.36,0,0
310675.15,74.7711,-547.583,0,0
311976.775,72.8038,-545.079,0,0
313278.4,70.7011,-542.578,0,0
314580,67.9919,-539.6,0,0
315882,65.5155,-535.89,0,0
317183,63.7058,-531.664,0,0
318485,62.4939,-527.633,0,0
319787,61.7701,-523.945,0,0
321088,61.079,-521.275,0,0
322390,59.6194,-518.885,0,0
323691,57.7144,-516.438,0,0
324993,55.1065,-513.617,0,0
326295,52.4323,-509.903,0,0
327596,50.2427,-505.718,0,0
328898,48.5961,-501.454,0,0
330200,47.048,-497.097,0,0
331501.125,45.8157,-492.793,0,0
332802.75,44.7423,-488.442,0,0
334104.375,44.1669,-483.914,0,0
335406.0,43.9616,-479.83,0,0
336707.625,43.8973,-476.158,0,0
338009.25,43.7117,-472.815,0,0
339310.875,43.2897,-469.639,0,0
340612.5,42.6489,-466.519,0,0
341914.125,41.7351,-463.172,0,0
343215.75,40.8875,-459.416,0,0
344517.375,40.3491,-455.606,0,0
345819.0,39.9191,-451.603,0,0
347121,39.9123,-447.574,0,0
348422,40.2479,-443.719,0,0
349724,40.7493,-440.12,0,0
351025,41.4661,-436.675,0,0
352327,42.318,-433.615,0,0
353629,43.0854,-430.881,0,0
354930,43.6478,-428.331,0,0
356232,44.1375,-425.874,0,0
357534,44.4322,-423.488,0,0
358835,44.6147,-420.955,0,0
360137,44.9132,-418.51,0,0
361438,45.1552,-416.091,0,0
362740.1,45.3987,-413.614,0,0
364041.725,45.6697,-411.152,0,0
365343.35,46.0274,-408.74,0,0
366644.975,46.4773,-406.486,0,0
367946.6,46.7809,-404.226,0,0
369248.225,47.2255,-401.77,0,0
370549.85,48.1856,-399.492,0,0
371851.475,49.1088,-398.052,0,0
373153.1,49.4944,-396.944,0,0
374454.725,49.2111,-395.741,0,0
375756.35,48.6848,-393.966,0,0
377057.975,48.6993,-391.837,0,0
378359.6,48.8143,-390.47,0,0
379661,48.1236,-388.854,0,0
380963,47.9761,-386.481,0,0
382264,48.4158,-385.211,0,0
383566,47.6022,-384.311,0,0
384868,46.1652,-382.702,0,0
386169,44.8079,-380.306,0,0
387471,43.7478,-377.511,0,0
388773,43.1085,-374.418,0,0
390074,43.0521,-371.397,0,0
391376,43.1134,-368.736,0,0
392677,43.0214,-366.237,0,0
393979,42.8448,-363.546,0,0
395280.7,42.7895,-360.77,0,0
396582.325,43.0549,-357.887,0,0
397883.95,43.44,-355.285,0,0
399185.575,43.7368,-352.741,0,0
400006.6,43.9373,-351.167,0,0