Folder: ML_Dmg_Mehdi_Dataset/Accelerated corrosion test data/2025-10-15_12-55-04 (part 3)

File: sample_7.csv
Frequency (Hz),Impedance (ohms),Phase (Radians),Temperature (C),Humidity (%)
10000.0,274.992,-12058.8,0,0
11301.625,248.039,-10668.1,0,0
12603.25,256.521,-9619.13,0,0
13904.875,210.004,-8728.18,0,0
15206.5,196.064,-7993.26,0,0
16508.125,172.307,-7353.71,0,0
17809.75,171.261,-6800.94,0,0
19111.375,180.78,-6358.84,0,0
20413.0,168.898,-5966.92,0,0
21714.625,157.994,-5626.13,0,0
23016.25,131.021,-5304.33,0,0
24317.875,123.416,-5012.07,0,0
25619.5,119.383,-4749.21,0,0
26921.1,122.953,-4505.08,0,0
28222.7,177.745,-4294.71,0,0
29524.4,140.197,-4161.67,0,0
30826,132.58,-3979.83,0,0
32127.6,118.11,-3831.71,0,0
33429.2,101.956,-3681.56,0,0
34730.9,92.9147,-3537.17,0,0
36032.5,89.1788,-3403.86,0,0
37334.1,86.6663,-3280.44,0,0
38635.7,87.2769,-3163.41,0,0
39937.4,98.9922,-3064.02,0,0
41239,87.1741,-2977.11,0,0
42540.6,80.5928,-2881.2,0,0
43842.225,79.6049,-2792.62,0,0
45143.85,80.7469,-2715.26,0,0
46445.475,77.4036,-2642.78,0,0
47747.1,71.1832,-2566.79,0,0
49048.725,68.4678,-2496.56,0,0
50350.35,66.3953,-2429.71,0,0
51651.975,64.8673,-2366.35,0,0
52953.6,63.9369,-2305.97,0,0
54255.225,62.5284,-2249.46,0,0
55556.85,61.2819,-2194.77,0,0
56858.475,60.4801,-2142.62,0,0
58160.1,59.5035,-2092.25,0,0
59461.7,59.8175,-2044.8,0,0
60763.3,59.4254,-2001.03,0,0
62065,57.1493,-1957.91,0,0
63366.6,55.9739,-1915.16,0,0
64668.2,55.3316,-1874.76,0,0
65969.8,55.2632,-1836.32,0,0
67271.5,53.4959,-1799.6,0,0
68573.1,52.32,-1762.98,0,0
69874.7,51.7722,-1727.74,0,0
71176.3,51.5004,-1694.2,0,0
72478,50.5411,-1662.01,0,0
73779.6,49.7042,-1630.27,0,0
75081.2,49.2346,-1599.59,0,0
76382.825,48.6325,-1569.91,0,0
77684.45,48.2991,-1541.18,0,0
78986.075,48.0156,-1513.23,0,0
80287.7,47.8188,-1486.28,0,0
81589.325,47.5172,-1460.05,0,0
82890.95,47.2008,-1434.5,0,0
84192.575,47.1528,-1409.4,0,0
85494.2,47.429,-1385.41,0,0
86795.825,47.4962,-1362.04,0,0
88097.45,47.6803,-1339.51,0,0
89399.075,47.1539,-1317.25,0,0
90700.7,47.3632,-1295.03,0,0
92002.3,47.7859,-1273.42,0,0
93303.9,48.3625,-1252.4,0,0
94605.6,50.1676,-1232.57,0,0
95907.2,50.125,-1214.66,0,0
97208.8,49.6096,-1195.25,0,0
98510.4,50.4138,-1175.88,0,0
99812.1,49.9947,-1157.2,0,0
101114,51.6239,-1138.25,0,0
102415,53.2519,-1120.15,0,0
103717,55.9349,-1103.64,0,0
105019,56.9249,-1088.51,0,0
106320.175,56.3167,-1072.37,0,0
107621.8,57.4889,-1056.2,0,0
108923.425,58.5624,-1039.96,0,0
110225.05,59.0993,-1023.31,0,0
111526.675,62.4052,-1006.49,0,0
112828.3,66.9364,-990.474,0,0
114129.925,72.2167,-976.732,0,0
115431.55,78.2935,-964.543,0,0
116733.175,85.9893,-956.33,0,0
118034.8,89.0601,-951.21,0,0
119336.425,91.2525,-948.68,0,0
120638.05,84.153,-947.779,0,0
121939.675,73.8693,-937.009,0,0
123241,66.7502,-924.048,0,0
124543,62.3868,-909.167,0,0
125845,58.6283,-895.316,0,0
127146,55.3805,-880.491,0,0
128448,53.7554,-865.774,0,0
129749,52.3126,-851.301,0,0
131051,51.1776,-836.841,0,0
132353,50.4876,-821.583,0,0
133654,50.9768,-806.009,0,0
134956,53.7108,-791.309,0,0
136258,58.3717,-778.381,0,0
137559,58.9109,-770.794,0,0
138860.775,56.6057,-758.524,0,0
140162.4,56.7342,-744.706,0,0
141464.025,56.6323,-731.358,0,0
142765.65,57.7066,-716.873,0,0
144067.275,60.3458,-703.556,0,0
145368.9,61.8376,-691.121,0,0
146670.525,63.0065,-677.763,0,0
147972.15,64.7746,-664.368,0,0
149273.775,65.5565,-651.327,0,0
150575.4,66.148,-635.65,0,0
151877.025,68.5012,-618.322,0,0
153178.65,73.0931,-600.477,0,0
154480,79.3357,-582.502,0,0
155782,88.0258,-564.712,0,0
157084,99.1636,-547.843,0,0
158385,112.264,-534.419,0,0
159687,121.417,-524.948,0,0
160988,125.429,-510.185,0,0
162290,134.538,-485.908,0,0
163592,153.233,-460.504,0,0
164893,180.238,-439.994,0,0
166195,211.063,-418.132,0,0
167497,260.118,-401.935,0,0
168798,321.468,-406.945,0,0
170100,377.352,-441.789,0,0
171401.375,413.58,-498.522,0,0
172703.0,423.583,-566.061,0,0
174004.625,389.061,-627.034,0,0
175306.25,340.592,-638.868,0,0
176607.875,319.943,-626.365,0,0
177909.5,328.554,-626.391,0,0
179211.125,327.912,-664.146,0,0
180512.75,294.796,-684.126,0,0
181814.375,256.653,-696.05,0,0
183116.0,214.051,-686.071,0,0
184417.625,185.463,-663.95,0,0
185719.25,166.683,-641.314,0,0
187021,152.777,-614.075,0,0
188322,149.292,-589.411,0,0
189624,143.812,-571.515,0,0
190926,138.286,-549.094,0,0
192227,137.713,-525.333,0,0
193529,140.035,-500.772,0,0
194831,146.229,-476.534,0,0
196132,157.324,-455.524,0,0
197434,169.11,-437.578,0,0
198735,177.852,-420.521,0,0
200037,188.039,-399.352,0,0
201339,203.526,-376.293,0,0
202640.35,225.499,-351.546,0,0
203941.975,255.071,-330.82,0,0
205243.6,291.742,-312.878,0,0
206545.225,338.199,-309.903,0,0
207846.85,372.548,-317.977,0,0
209148.475,410.455,-314.294,0,0
210450.1,470.882,-329.653,0,0
211751.725,514.509,-380.346,0,0
213053.35,533.329,-434.081,0,0
214354.975,534.616,-480.863,0,0
215656.6,526.118,-520.711,0,0
216958.225,519.902,-558.232,0,0
218259.85,494.636,-593.619,0,0
219561,459.523,-615.561,0,0
220863,426.72,-614.384,0,0
222165,409.575,-602.897,0,0
223466,405.727,-595.096,0,0
224768,403.299,-592.077,0,0
226070,408.778,-585.405,0,0
227371,420.495,-590.865,0,0
228673,433.505,-605.274,0,0
229974,438.092,-628.879,0,0
231276,433.869,-659.981,0,0
232578,419.467,-689.277,0,0
233879,389.048,-718.44,0,0
235180.95,344.274,-727.841,0,0
236482.575,310.299,-715.274,0,0
237784.2,286.059,-705.258,0,0
239085.825,262.418,-685.707,0,0
240387.45,259.127,-665.299,0,0
241689.075,252.399,-659.815,0,0
242990.7,238.605,-648.299,0,0
244292.325,231.651,-628.849,0,0
245593.95,235.865,-615.13,0,0
246895.575,236.228,-607.34,0,0
248197.2,235.814,-597.358,0,0
249498.825,238.318,-586.676,0,0
250800,244.828,-576.75,0,0
252102,255.247,-570.481,0,0
253404,268.871,-572.262,0,0
254705,275.849,-583.023,0,0
256007,273.38,-593.794,0,0
257309,265.642,-599.375,0,0
258610,258.261,-598.817,0,0
259912,253.012,-598.204,0,0
261213,246.821,-593.141,0,0
262515,246.849,-584.503,0,0
263817,254.803,-581.646,0,0
265118,259.627,-587.722,0,0
266420,258.192,-592.457,0,0
267721.55,257.038,-597.473,0,0
269023.175,252.348,-600.5,0,0
270324.8,251.985,-599.136,0,0
271626.425,259.368,-603.147,0,0
272928.05,265.697,-624.948,0,0
274229.675,248.61,-653.124,0,0
275531.3,214.212,-666.957,0,0
276832.925,178.101,-659.27,0,0
278134.55,152.973,-637.805,0,0
279436.175,141.969,-614.274,0,0
280737.8,139.165,-594.173,0,0
282039.425,139.031,-581.529,0,0
283341,135.826,-568.522,0,0
284643,136.893,-552.932,0,0
285944,142.307,-540.98,0,0
287246,147.786,-533.424,0,0
288548,150.115,-526.678,0,0
289849,153.302,-517.759,0,0
291151,159.62,-508.686,0,0
292452,167.168,-502.584,0,0
293754,175.347,-497.586,0,0
295056,183.983,-493.35,0,0
296357,194.596,-490.493,0,0
297659,207.332,-490.124,0,0
298960.525,220.322,-494.054,0,0
300262.15,233.869,-501.208,0,0
301563.775,247.895,-514.194,0,0
302865.4,258.349,-538.365,0,0
304167.025,251.818,-566.464,0,0
305468.65,235.785,-586.048,0,0
306770.275,215.366,-598.046,0,0
308071.9,194.796,-602.163,0,0
309373.525,175.758,-600.207,0,0
310675.15,161.475,-593.935,0,0
311976.775,150.807,-587.819,0,0
313278.4,141.17,-581.769,0,0
314580,132.443,-574.115,0,0
315882,127.003,-565.42,0,0
317183,123.817,-558.461,0,0
318485,121.078,-552.815,0,0
319787,118.733,-547.718,0,0
321088,116.68,-543.633,0,0
322390,114.31,-540,0,0
323691,111.642,-536.692,0,0
324993,108.738,-532.896,0,0
326295,106.894,-529.411,0,0
327596,104.712,-527.051,0,0
328898,101.554,-524.695,0,0
330200,98.1063,-521.984,0,0
331501.125,94.5569,-519.352,0,0
332802.75,90.2123,-516.529,0,0
334104.375,85.1386,-512.703,0,0
335406.0,80.3734,-507.758,0,0
336707.625,76.068,-502.012,0,0
338009.25,72.5755,-495.527,0,0
339310.875,69.8786,-488.974,0,0
340612.5,67.8316,-482.098,0,0
341914.125,66.6006,-475.13,0,0
343215.75,66.4294,-468.27,0,0
344517.375,67.1495,-462.135,0,0
345819.0,68.2528,-457.015,0,0
347121,68.9259,-453.089,0,0
348422,68.6134,-449.172,0,0
349724,67.8843,-444.359,0,0
351025,67.4855,-438.966,0,0
352327,68.3308,-432.845,0,0
353629,70.4607,-427.568,0,0
354930,73.0491,-423.495,0,0
356232,75.4147,-420.983,0,0
357534,75.8984,-419.152,0,0
358835,75.0684,-415.978,0,0
360137,74.7478,-411.21,0,0
361438,75.8593,-405.873,0,0
362740.1,78.0361,-401.087,0,0
364041.725,80.6072,-396.907,0,0
365343.35,84.0709,-393.144,0,0
366644.975,87.618,-391.065,0,0
367946.6,90.4313,-389.517,0,0
369248.225,92.9816,-388.583,0,0
370549.85,94.5126,-388.782,0,0
371851.475,93.5447,-388.292,0,0
373153.1,92.6376,-385.299,0,0
374454.725,93.2686,-381.566,0,0
375756.35,94.7127,-378.393,0,0
377057.975,95.9061,-375.815,0,0
378359.6,97.0403,-372.198,0,0
379661,99.3301,-368.647,0,0
380963,102.013,-365.772,0,0
382264,104.582,-363.046,0,0
383566,107.672,-360.369,0,0
384868,111.139,-358.341,0,0
386169,114.099,-356.756,0,0
387471,117.15,-354.998,0,0
388773,120.254,-352.707,0,0
390074,125.039,-350.651,0,0
391376,129.892,-350.336,0,0
392677,134.188,-350.323,0,0
393979,138.25,-350.343,0,0
395280.7,142.971,-349.733,0,0
396582.325,149.787,-349.824,0,0
397883.95,158.076,-352.786,0,0
399185.575,165.999,-359.648,0,0
400006.6,169.506,-366.293,0,0

File: sample_8.csv
Frequency (Hz),Impedance (ohms),Phase (Radians),Temperature (C),Humidity (%)
10000.0,312.532,-10937.7,0,0
11301.625,276.516,-9693.47,0,0
12603.25,254.193,-8705.34,0,0
13904.875,225.842,-7906,0,0
15206.5,205.479,-7235.05,0,0
16508.125,189.505,-6670.24,0,0
17809.75,175.911,-6184.7,0,0
19111.375,168.176,-5763.85,0,0
20413.0,160.908,-5403.41,0,0
21714.625,150.343,-5084.37,0,0
23016.25,144.561,-4802.49,0,0
24317.875,133.065,-4546.49,0,0
25619.5,126.097,-4314.31,0,0
26921.1,120.575,-4103.8,0,0
28222.7,117.459,-3914.85,0,0
29524.4,113.868,-3742.6,0,0
30826,109.727,-3585.29,0,0
32127.6,105.658,-3437.9,0,0
33429.2,105.2,-3301.46,0,0
34730.9,106.206,-3176.93,0,0
36032.5,108.849,-3066.32,0,0
37334.1,106.203,-2966.74,0,0
38635.7,96.4788,-2870.67,0,0
39937.4,88.5104,-2774.53,0,0
41239,85.7015,-2684.06,0,0
42540.6,82.5501,-2599.45,0,0
43842.225,81.7415,-2521.97,0,0
45143.85,77.7933,-2447.64,0,0
46445.475,75.0228,-2376.68,0,0
47747.1,73.3606,-2309.67,0,0
49048.725,71.0163,-2246.46,0,0
50350.35,69.1488,-2185.69,0,0
51651.975,68.2259,-2127.72,0,0
52953.6,67.7507,-2073.36,0,0
54255.225,66.6517,-2023.46,0,0
55556.85,63.6534,-1974.1,0,0
56858.475,61.4989,-1925.36,0,0
58160.1,60.5126,-1878.96,0,0
59461.7,59.8398,-1835.24,0,0
60763.3,58.5167,-1792.68,0,0
62065,58.0978,-1751.94,0,0
63366.6,58.2287,-1712.39,0,0
64668.2,59.1268,-1675.83,0,0
65969.8,58.1572,-1641.33,0,0
67271.5,56.1771,-1606.88,0,0
68573.1,55.2387,-1572.92,0,0
69874.7,54.9703,-1539.85,0,0
71176.3,54.9232,-1508.44,0,0
72478,55.112,-1478.82,0,0
73779.6,54.4208,-1449.86,0,0
75081.2,53.5338,-1421.35,0,0
76382.825,53.2837,-1393.49,0,0
77684.45,52.9655,-1366.87,0,0
78986.075,52.3532,-1340.54,0,0
80287.7,51.9319,-1314.5,0,0
81589.325,51.9195,-1288.83,0,0
82890.95,52.8691,-1263.86,0,0
84192.575,54.1136,-1240.13,0,0
85494.2,55.0062,-1218.52,0,0
86795.825,54.47,-1195.46,0,0
88097.45,55.2839,-1172.97,0,0
89399.075,56.0864,-1150.72,0,0
90700.7,58.0019,-1128.24,0,0
92002.3,62.2986,-1107.3,0,0
93303.9,66.0929,-1089.5,0,0
94605.6,65.9166,-1071.76,0,0
95907.2,67.777,-1052.08,0,0
97208.8,71.595,-1032.95,0,0
98510.4,76.4175,-1015.72,0,0
99812.1,81.1373,-1001.61,0,0
101114,84.906,-988.63,0,0
102415,86.6055,-977.21,0,0
103717,85.6756,-965.348,0,0
105019,85.0204,-951.949,0,0
106320.175,84.3987,-937.591,0,0
107621.8,84.6067,-924.013,0,0
108923.425,83.999,-909.782,0,0
110225.05,85.1357,-895.698,0,0
111526.675,85.7313,-882.925,0,0
112828.3,86.2442,-870.658,0,0
114129.925,86.039,-858.868,0,0
115431.55,85.5377,-846.753,0,0
116733.175,83.6943,-834.389,0,0
118034.8,83.1572,-820.991,0,0
119336.425,82.5176,-808.341,0,0
120638.05,81.1357,-795.23,0,0
121939.675,80.4359,-781.705,0,0
123241,80.0033,-768.237,0,0
124543,79.6048,-754.132,0,0
125845,79.9165,-740.256,0,0
127146,80.8645,-726.262,0,0
128448,81.9891,-712.888,0,0
129749,83.1074,-699.776,0,0
131051,84.1169,-686.118,0,0
132353,85.7148,-673.273,0,0
133654,86.4257,-660.166,0,0
134956,87.8933,-646.151,0,0
136258,90.9518,-633.002,0,0
137559,91.4039,-621.628,0,0
138860.775,90.6833,-606.382,0,0
140162.4,92.6627,-590.304,0,0
141464.025,95.5114,-574.337,0,0
142765.65,98.6187,-557.6,0,0
144067.275,103.387,-539.933,0,0
145368.9,110.215,-521.366,0,0
146670.525,119.841,-503.95,0,0
147972.15,129.965,-488.439,0,0
149273.775,142.063,-469.896,0,0
150575.4,160.761,-453.473,0,0
151877.025,185.489,-446.452,0,0
153178.65,201.518,-449.627,0,0
154480,208.248,-451.303,0,0
155782,219.265,-444.777,0,0
157084,224.13,-453.209,0,0
158385,220.811,-442.92,0,0
159687,232.932,-435.564,0,0
160988,232.289,-433.978,0,0
162290,238.927,-419.448,0,0
163592,252.43,-414.856,0,0
164893,260.96,-414.807,0,0
166195,262.441,-420.447,0,0
167497,251.861,-414.506,0,0
168798,248.031,-400.129,0,0
170100,249.09,-381.42,0,0
171401.375,251.475,-363.011,0,0
172703.0,262.53,-338.88,0,0
174004.625,278.569,-322.945,0,0
175306.25,285.46,-310.027,0,0
176607.875,296.688,-282.147,0,0
177909.5,318.293,-256.606,0,0
179211.125,348.121,-230.298,0,0
180512.75,390.723,-210.665,0,0
181814.375,436.677,-205.358,0,0
183116.0,479.11,-213.467,0,0
184417.625,507.218,-224.609,0,0
185719.25,535.82,-226.522,0,0
187021,570.275,-231.462,0,0
188322,606.662,-237.056,0,0
189624,642.516,-253.746,0,0
190926,677.009,-261.156,0,0
192227,724.39,-277.992,0,0
193529,774.08,-293.778,0,0
194831,847.196,-337.288,0,0
196132,904.661,-411.467,0,0
197434,935.233,-514.365,0,0
198735,925.379,-615.414,0,0
200037,893.457,-708.587,0,0
201339,835.31,-777.957,0,0
202640.35,760.238,-833.647,0,0
203941.975,688.012,-842.271,0,0
205243.6,633.347,-843.908,0,0
206545.225,579.817,-827.742,0,0
207846.85,561.36,-799.734,0,0
209148.475,553.529,-793.077,0,0
210450.1,545.309,-787.34,0,0
211751.725,541.89,-787.667,0,0
213053.35,540.123,-796.241,0,0
214354.975,533.48,-811.02,0,0
215656.6,519.863,-829.439,0,0
216958.225,497.234,-843.697,0,0
218259.85,473.036,-852.198,0,0
219561,448.912,-856.238,0,0
220863,423.676,-856.578,0,0
222165,402.895,-848.592,0,0
223466,389.752,-841.816,0,0
224768,381.366,-838.574,0,0
226070,373.131,-843.805,0,0
227371,356.449,-851.2,0,0
228673,335.118,-853.621,0,0
229974,315.072,-853.579,0,0
231276,291.746,-851.856,0,0
232578,268.219,-844.995,0,0
233879,245.664,-834.471,0,0
235180.95,225.057,-818.702,0,0
236482.575,210.342,-799.927,0,0
237784.2,200.752,-781.361,0,0
239085.825,196.157,-763.803,0,0
240387.45,194.963,-752.083,0,0
241689.075,190.71,-744.485,0,0
242990.7,183.138,-735.059,0,0
244292.325,177.412,-722.895,0,0
245593.95,174.194,-711.765,0,0
246895.575,171.776,-701.22,0,0
248197.2,168.854,-692.122,0,0
249498.825,165.431,-681.259,0,0
250800,164.331,-668.912,0,0
252102,167.63,-657.448,0,0
253404,172.355,-651.681,0,0
254705,172.458,-647.701,0,0
256007,171.108,-641.649,0,0
257309,170.442,-633.435,0,0
258610,172.405,-624.164,0,0
259912,177.539,-616.059,0,0
261213,183.377,-611.056,0,0
262515,189.144,-608.099,0,0
263817,192.584,-605.61,0,0
265118,196.264,-600.203,0,0
266420,205.589,-593.218,0,0
267721.55,223.081,-591.413,0,0
269023.175,242.716,-602.803,0,0
270324.8,253.844,-625.062,0,0
271626.425,252.812,-652.715,0,0
272928.05,238.053,-677.823,0,0
274229.675,212.143,-693.429,0,0
275531.3,184.594,-694.388,0,0
276832.925,163.978,-686.676,0,0
278134.55,149.184,-676.789,0,0
279436.175,137.809,-665.437,0,0
280737.8,131.814,-653.343,0,0
282039.425,129.667,-644.09,0,0
283341,128.092,-638.562,0,0
284643,124.715,-633.256,0,0
285944,123.465,-626.294,0,0
287246,126.256,-623.159,0,0
288548,125.922,-627.248,0,0
289849,118.005,-630.387,0,0
291151,108.002,-628.291,0,0
292452,99.2445,-623.711,0,0
293754,91.5425,-617.373,0,0
295056,84.9083,-609.961,0,0
296357,80.2281,-601.778,0,0
297659,76.5726,-594.109,0,0
298960.525,73.6113,-586.213,0,0
300262.15,71.7324,-578.125,0,0
301563.775,71.466,-570.255,0,0
302865.4,72.3955,-563.738,0,0
304167.025,73.6997,-558.588,0,0
305468.65,74.8401,-554.494,0,0
306770.275,75.7937,-551.404,0,0
308071.9,76.309,-549.003,0,0
309373.525,75.7763,-547.847,0,0
310675.15,73.7988,-545.868,0,0
311976.775,71.8643,-543.33,0,0
313278.4,69.6945,-540.784,0,0
314580,67.0675,-537.727,0,0
315882,64.6804,-533.964,0,0
317183,62.8262,-529.698,0,0
318485,61.6834,-525.693,0,0
319787,61.0367,-522.149,0,0
321088,60.1427,-519.447,0,0
322390,58.7355,-516.957,0,0
323691,56.7804,-514.388,0,0
324993,54.2528,-511.405,0,0
326295,51.6613,-507.703,0,0
327596,49.5825,-503.474,0,0
328898,47.9614,-499.265,0,0
330200,46.5164,-494.906,0,0
331501.125,45.3486,-490.664,0,0
332802.75,44.3525,-486.239,0,0
334104.375,43.853,-481.836,0,0
335406.0,43.6812,-477.821,0,0
336707.625,43.6078,-474.211,0,0
338009.25,43.4285,-470.915,0,0
339310.875,43.0224,-467.751,0,0
340612.5,42.3281,-464.665,0,0
341914.125,41.375,-461.255,0,0
343215.75,40.6531,-457.558,0,0
344517.375,40.0883,-453.704,0,0
345819.0,39.7639,-449.782,0,0
347121,39.8161,-445.796,0,0
348422,40.1373,-442.001,0,0
349724,40.6529,-438.43,0,0
351025,41.4006,-435.03,0,0
352327,42.2157,-431.999,0,0
353629,42.8712,-429.33,0,0
354930,43.4507,-426.772,0,0
356232,43.9153,-424.336,0,0
357534,44.1891,-421.899,0,0
358835,44.4423,-419.405,0,0
360137,44.7131,-416.966,0,0
361438,44.9678,-414.519,0,0
362740.1,45.2078,-412.164,0,0
364041.725,45.4348,-409.765,0,0
365343.35,45.7993,-407.29,0,0
366644.975,46.2071,-405.014,0,0
367946.6,46.5585,-402.752,0,0
369248.225,47.0206,-400.326,0,0
370549.85,48.0233,-398.166,0,0
371851.475,48.8728,-396.795,0,0
373153.1,49.1273,-395.659,0,0
374454.725,48.8528,-394.437,0,0
375756.35,48.3068,-392.632,0,0
377057.975,48.342,-390.521,0,0
378359.6,48.4299,-389.146,0,0
379661,47.6473,-387.507,0,0
380963,47.5272,-385.056,0,0
382264,47.9762,-383.762,0,0
383566,47.1958,-382.892,0,0
384868,45.7664,-381.22,0,0
386169,44.4079,-378.781,0,0
387471,43.3818,-375.923,0,0
388773,42.81,-372.821,0,0
390074,42.8309,-369.851,0,0
391376,42.8715,-367.24,0,0
392677,42.7955,-364.753,0,0
393979,42.6479,-362.124,0,0
395280.7,42.586,-359.315,0,0
396582.325,42.8304,-356.485,0,0
397883.95,43.1959,-353.874,0,0
399185.575,43.5594,-351.382,0,0
400006.6,43.7425,-349.777,0,0