Folder: ML_Dmg_Mehdi_Dataset/Accelerated corrosion test data/2025-10-03_18-00-02 (part 2)

File: sample_3.csv
Frequency (Hz),Impedance (ohms),Phase (Radians),Temperature (C),Humidity (%)
10000.0,256.466,-11658.1,0,0
11301.625,228.389,-10326.9,0,0
12603.25,206.581,-9268.8,0,0
13904.875,189.121,-8405.84,0,0
15206.5,176.229,-7685.08,0,0
16508.125,164.648,-7096.19,0,0
17809.75,160.066,-6574.42,0,0
19111.375,148.611,-6127.44,0,0
20413.0,158.933,-5731.12,0,0
21714.625,139.911,-5412.67,0,0
23016.25,129.39,-5110.74,0,0
24317.875,121.002,-4834.61,0,0
25619.5,114.888,-4590.7,0,0
26921.1,110.323,-4363.27,0,0
28222.7,105.435,-4158.69,0,0
29524.4,111.332,-3983.5,0,0
30826,101.869,-3812.44,0,0
32127.6,102.38,-3650.84,0,0
33429.2,100.571,-3527.24,0,0
34730.9,89.3208,-3390.52,0,0
36032.5,84.8795,-3264.36,0,0
37334.1,81.825,-3148.03,0,0
38635.7,79.3779,-3039.33,0,0
39937.4,76.9965,-2938.06,0,0
41239,75.6025,-2842.55,0,0
42540.6,74.4257,-2753.56,0,0
43842.225,73.0186,-2668.92,0,0
45143.85,71.8927,-2590.12,0,0
46445.475,70.9488,-2514.98,0,0
47747.1,71.3845,-2443.15,0,0
49048.725,69.5258,-2378.44,0,0
50350.35,67.826,-2313.85,0,0
51651.975,67.4921,-2252.12,0,0
52953.6,67.8359,-2192.81,0,0
54255.225,70.8989,-2139.05,0,0
55556.85,67.8658,-2092.49,0,0
56858.475,62.6415,-2039.65,0,0
58160.1,62.3905,-1988.2,0,0
59461.7,62.9522,-1939.47,0,0
60763.3,64.3672,-1893.15,0,0
62065,66.5775,-1849.24,0,0
63366.6,70.2923,-1806.08,0,0
64668.2,79.5907,-1765.17,0,0
65969.8,93.6826,-1741.72,0,0
67271.5,77.3227,-1715.63,0,0
68573.1,76.9451,-1679.26,0,0
69874.7,75.7869,-1650.24,0,0
71176.3,70.2823,-1618.92,0,0
72478,68.8284,-1586.83,0,0
73779.6,66.8189,-1558.26,0,0
75081.2,63.2323,-1529.6,0,0
76382.825,60.1979,-1500.3,0,0
77684.45,58.1224,-1471.51,0,0
78986.075,56.2255,-1443.26,0,0
80287.7,54.9084,-1415.59,0,0
81589.325,54.061,-1388.64,0,0
82890.95,53.6251,-1362.46,0,0
84192.575,53.3746,-1337.07,0,0
85494.2,53.4084,-1312.28,0,0
86795.825,53.6944,-1288.3,0,0
88097.45,54.3193,-1264.61,0,0
89399.075,55.8523,-1241,0,0
90700.7,58.3903,-1219.33,0,0
92002.3,61.2409,-1198.95,0,0
93303.9,64.5554,-1181.1,0,0
94605.6,65.5803,-1167.14,0,0
95907.2,59.634,-1149.78,0,0
97208.8,58.5847,-1128.94,0,0
98510.4,58.2573,-1110.05,0,0
99812.1,57.2959,-1091.42,0,0
101114,56.4749,-1071.78,0,0
102415,57.9449,-1051.26,0,0
103717,61.5735,-1033.91,0,0
105019,64.702,-1020.37,0,0
106320.175,63.2305,-1006.68,0,0
107621.8,60.6053,-990.489,0,0
108923.425,59.0631,-972.533,0,0
110225.05,59.4245,-953.825,0,0
111526.675,62.1845,-936.17,0,0
112828.3,64.3999,-920.107,0,0
114129.925,66.3779,-903.986,0,0
115431.55,69.1346,-887.781,0,0
116733.175,73.3745,-871.887,0,0
118034.8,79.0962,-857.04,0,0
119336.425,85.7464,-845.796,0,0
120638.05,90.0563,-840.058,0,0
121939.675,87.8624,-831.191,0,0
123241,88.2471,-818.896,0,0
124543,88.9149,-808.064,0,0
125845,89.1705,-797.854,0,0
127146,87.7138,-787.703,0,0
128448,85.3361,-775.987,0,0
129749,83.962,-761.93,0,0
131051,85.6541,-749.038,0,0
132353,85.156,-737.752,0,0
133654,84.494,-725.845,0,0
134956,82.7743,-713.217,0,0
136258,81.4088,-699.113,0,0
137559,81.5255,-683.804,0,0
138860.775,82.8785,-670.317,0,0
140162.4,82.2943,-656.191,0,0
141464.025,82.5131,-641.505,0,0
142765.65,82.3635,-625.503,0,0
144067.275,83.2861,-608.215,0,0
145368.9,85.155,-590.345,0,0
146670.525,88.2854,-571.193,0,0
147972.15,93.407,-551.385,0,0
149273.775,100.777,-530.976,0,0
150575.4,112.149,-511.04,0,0
151877.025,125.678,-495.22,0,0
153178.65,138.543,-482.613,0,0
154480,148.229,-470.794,0,0
155782,156.984,-454.902,0,0
157084,168.566,-437.351,0,0
158385,184.56,-424.39,0,0
159687,192.566,-409.21,0,0
160988,209.577,-380.866,0,0
162290,239.877,-356.188,0,0
163592,281.255,-341.616,0,0
164893,329.784,-337.675,0,0
166195,379.312,-359.285,0,0
167497,410.187,-395.39,0,0
168798,422.358,-435.54,0,0
170100,414.961,-473.036,0,0
171401.375,395.113,-483.292,0,0
172703.0,391.301,-481.21,0,0
174004.625,399.873,-484.583,0,0
175306.25,402.527,-502.387,0,0
176607.875,393.832,-518.945,0,0
177909.5,376.247,-530.755,0,0
179211.125,356.569,-521.659,0,0
180512.75,351.506,-507.172,0,0
181814.375,357.124,-503.196,0,0
183116.0,348.432,-508.161,0,0
184417.625,337.183,-500.027,0,0
185719.25,329.042,-485.575,0,0
187021,328.155,-463.929,0,0
188322,338.049,-447.297,0,0
189624,345.557,-436.748,0,0
190926,354.985,-425.484,0,0
192227,363.417,-411.828,0,0
193529,376.859,-394.137,0,0
194831,404.55,-376.941,0,0
196132,437.55,-379.483,0,0
197434,460.434,-394.155,0,0
198735,468.057,-408.317,0,0
200037,474.118,-410.693,0,0
201339,478.154,-405.632,0,0
202640.35,494.229,-393.359,0,0
203941.975,526.334,-390.705,0,0
205243.6,556.69,-404.315,0,0
206545.225,570.963,-422.76,0,0
207846.85,586.099,-428.725,0,0
209148.475,613.138,-435.235,0,0
210450.1,644.509,-455.259,0,0
211751.725,670.918,-484.547,0,0
213053.35,692.795,-518.749,0,0
214354.975,709.368,-561.217,0,0
215656.6,717.266,-606.97,0,0
216958.225,715.265,-658.512,0,0
218259.85,697.925,-705.048,0,0
219561,673.304,-741.056,0,0
220863,653.386,-775.97,0,0
222165,620.092,-810.493,0,0
223466,576.411,-833.922,0,0
224768,536.588,-833.788,0,0
226070,517.064,-831.316,0,0
227371,500.228,-842.811,0,0
228673,475.63,-856.234,0,0
229974,444.892,-863.731,0,0
231276,414.069,-865.195,0,0
232578,386.511,-861.83,0,0
233879,361.071,-857.063,0,0
235180.95,336.512,-851.198,0,0
236482.575,311.106,-843.272,0,0
237784.2,287.08,-830.877,0,0
239085.825,265.455,-813.806,0,0
240387.45,250.303,-794.011,0,0
241689.075,239.977,-775.121,0,0
242990.7,234.363,-757.412,0,0
244292.325,231.767,-743.64,0,0
245593.95,228.08,-733.227,0,0
246895.575,224.336,-723.187,0,0
248197.2,220.402,-712.88,0,0
249498.825,218.658,-703.769,0,0
250800,215.949,-697.452,0,0
252102,209.798,-690.611,0,0
253404,202.717,-679.051,0,0
254705,199.956,-664.19,0,0
256007,202.361,-648.557,0,0
257309,210.853,-636.623,0,0
258610,219.675,-630.876,0,0
259912,230.113,-625.818,0,0
261213,242.28,-628.721,0,0
262515,249.298,-640.743,0,0
263817,244.848,-653.513,0,0
265118,233.646,-661.108,0,0
266420,219.68,-661.53,0,0
267721.55,207.596,-655.003,0,0
269023.175,200.513,-645.433,0,0
270324.8,197.814,-635.849,0,0
271626.425,197.983,-627.558,0,0
272928.05,200.059,-621.898,0,0
274229.675,201.258,-617.009,0,0
275531.3,205.128,-612.527,0,0
276832.925,211.549,-611.276,0,0
278134.55,216.931,-616.556,0,0
279436.175,216.257,-625.835,0,0
280737.8,208.295,-632.537,0,0
282039.425,198.973,-634.555,0,0
283341,188.755,-633.386,0,0
284643,180.014,-628.819,0,0
285944,172.55,-622.313,0,0
287246,167.891,-613.568,0,0
288548,167.78,-605.048,0,0
289849,169.734,-600.101,0,0
291151,171.031,-597.48,0,0
292452,170.737,-595.333,0,0
293754,171.379,-592.038,0,0
295056,174.545,-590.497,0,0
296357,177.467,-593.623,0,0
297659,176.336,-599.219,0,0
298960.525,170.6,-603.855,0,0
300262.15,163.236,-605.551,0,0
301563.775,155.306,-605.034,0,0
302865.4,147.937,-602.275,0,0
304167.025,141.611,-598.448,0,0
305468.65,136.425,-593.834,0,0
306770.275,132.149,-588.891,0,0
308071.9,129.431,-584.131,0,0
309373.525,126.955,-581.026,0,0
310675.15,123.228,-578.02,0,0
311976.775,118.972,-574.268,0,0
313278.4,114.49,-568.954,0,0
314580,111.706,-562.089,0,0
315882,111.626,-555.331,0,0
317183,113.241,-550.97,0,0
318485,113.845,-548.837,0,0
319787,113.077,-546.839,0,0
321088,112.193,-544.277,0,0
322390,112.119,-541.933,0,0
323691,111.96,-541.218,0,0
324993,110.308,-541.439,0,0
326295,107.134,-541.171,0,0
327596,103.021,-539.89,0,0
328898,98.9744,-537.45,0,0
330200,95.1683,-534.797,0,0
331501.125,90.9348,-531.747,0,0
332802.75,86.6488,-527.836,0,0
334104.375,82.5582,-522.967,0,0
335406.0,79.0593,-517.064,0,0
336707.625,76.893,-510.698,0,0
338009.25,75.6761,-504.454,0,0
339310.875,75.2462,-498.125,0,0
340612.5,76.2636,-491.884,0,0
341914.125,78.5802,-487.116,0,0
343215.75,80.9678,-484.34,0,0
344517.375,82.0538,-482.76,0,0
345819.0,81.8841,-481.084,0,0
347121,81.2088,-478.893,0,0
348422,80.2987,-476.121,0,0
349724,80.0924,-472.605,0,0
351025,81.1024,-469.545,0,0
352327,82.176,-468.288,0,0
353629,81.6176,-467.884,0,0
354930,79.5187,-466.532,0,0
356232,77.5347,-463.729,0,0
357534,76.1473,-460.555,0,0
358835,75.0176,-456.959,0,0
360137,74.7881,-453.199,0,0
361438,75.1338,-449.802,0,0
362740.1,75.6238,-446.763,0,0
364041.725,76.6881,-444.075,0,0
365343.35,78.1718,-442.806,0,0
366644.975,77.9626,-443.009,0,0
367946.6,75.4356,-442.216,0,0
369248.225,72.6289,-438.648,0,0
370549.85,72.8064,-433.778,0,0
371851.475,74.6576,-431.357,0,0
373153.1,74.8342,-430.86,0,0
374454.725,73.2258,-429.548,0,0
375756.35,71.3962,-426.709,0,0
377057.975,70.7999,-422.925,0,0
378359.6,71.229,-419.536,0,0
379661,72.1063,-416.841,0,0
380963,72.9198,-414.819,0,0
382264,73.5442,-413.395,0,0
383566,73.4245,-412.408,0,0
384868,72.5087,-411.206,0,0
386169,71.0875,-409.177,0,0
387471,69.9116,-406.435,0,0
388773,68.8746,-403.265,0,0
390074,68.3895,-399.26,0,0
391376,69.1546,-395.087,0,0
392677,71.0948,-391.377,0,0
393979,73.7225,-388.959,0,0
395280.7,76.3047,-387.794,0,0
396582.325,78.2713,-387.849,0,0
397883.95,79.1043,-388.585,0,0
399185.575,78.4458,-389.064,0,0
400006.6,77.6551,-388.947,0,0

File: sample_4.csv
Frequency (Hz),Impedance (ohms),Phase (Radians),Temperature (C),Humidity (%)
10000.0,267.426,-11746.7,0,0
11301.625,237.577,-10407,0,0
12603.25,215.745,-9337.05,0,0
13904.875,196.336,-8465.47,0,0
15206.5,183.624,-7749.39,0,0
16508.125,191,-7140.89,0,0
17809.75,158,-6638.87,0,0
19111.375,147.548,-6187.39,0,0
20413.0,142.694,-5791.93,0,0
21714.625,145.356,-5448.56,0,0
23016.25,127.141,-5152.56,0,0
24317.875,117.871,-4872.01,0,0
25619.5,114.1,-4621.43,0,0
26921.1,108.294,-4394.36,0,0
28222.7,121.32,-4191.67,0,0
29524.4,113.438,-4016.31,0,0
30826,100.459,-3845.37,0,0
32127.6,100.563,-3687.56,0,0
33429.2,91.701,-3546.87,0,0
34730.9,86.6165,-3410.63,0,0
36032.5,83.4671,-3284.41,0,0
37334.1,81.1303,-3166.93,0,0
38635.7,78.7352,-3056.25,0,0
39937.4,78.1798,-2951.96,0,0
41239,81.092,-2857.38,0,0
42540.6,79.7244,-2771.91,0,0
43842.225,75.163,-2688.41,0,0
45143.85,72.2397,-2608.04,0,0
46445.475,71.8904,-2531.71,0,0
47747.1,71.2515,-2462.87,0,0
49048.725,67.2865,-2394.01,0,0
50350.35,65.9421,-2327.46,0,0
51651.975,65.5685,-2263.51,0,0
52953.6,67.6345,-2201.4,0,0
54255.225,75.0531,-2145.6,0,0
55556.85,72.9092,-2102.32,0,0
56858.475,67.0937,-2049.53,0,0
58160.1,68.2544,-1997.5,0,0
59461.7,72.9469,-1947.52,0,0
60763.3,82.7454,-1911.19,0,0
62065,71.374,-1877.86,0,0
63366.6,66.1882,-1832.32,0,0
64668.2,66.2089,-1789.65,0,0
65969.8,68.511,-1749.69,0,0
67271.5,72.0405,-1714.55,0,0
68573.1,74.507,-1686.74,0,0
69874.7,66.6782,-1655.51,0,0
71176.3,66.0885,-1621.73,0,0
72478,60.2016,-1590.41,0,0
73779.6,59.0403,-1554.35,0,0
75081.2,61.2271,-1522.31,0,0
76382.825,63.2063,-1494.21,0,0
77684.45,66.0275,-1466.64,0,0
78986.075,64.0616,-1444.17,0,0
80287.7,61.1633,-1417.15,0,0
81589.325,60.4783,-1391.26,0,0
82890.95,59.3131,-1366.13,0,0
84192.575,58.3626,-1341.33,0,0
85494.2,57.7714,-1317.2,0,0
86795.825,57.3729,-1293.78,0,0
88097.45,56.0357,-1271.76,0,0
89399.075,54.3002,-1247.72,0,0
90700.7,54.1715,-1224.76,0,0
92002.3,54.5585,-1201.82,0,0
93303.9,55.419,-1181.05,0,0
94605.6,54.2606,-1160.19,0,0
95907.2,54.2684,-1137.83,0,0
97208.8,55.3365,-1116.37,0,0
98510.4,56.8803,-1095.1,0,0
99812.1,59.9118,-1074.74,0,0
101114,64.7611,-1056.83,0,0
102415,63.2297,-1042.81,0,0
103717,60.4131,-1020.13,0,0
105019,64.9354,-996.692,0,0
106320.175,71.7905,-977.143,0,0
107621.8,78.7882,-959.88,0,0
108923.425,87.3302,-944.329,0,0
110225.05,94.9802,-932.571,0,0
111526.675,100.657,-922.716,0,0
112828.3,105.135,-913.759,0,0
114129.925,107.448,-905.702,0,0
115431.55,108.007,-897.953,0,0
116733.175,106.02,-889.421,0,0
118034.8,102.505,-877.768,0,0
119336.425,103.255,-862.265,0,0
120638.05,108.422,-856.946,0,0
121939.675,101.143,-849.41,0,0
123241,96.4017,-836.665,0,0
124543,93.1588,-823.789,0,0
125845,90.5725,-810.458,0,0
127146,87.4009,-798.03,0,0
128448,83.5862,-784.631,0,0
129749,78.6755,-769.403,0,0
131051,75.3108,-751.826,0,0
132353,73.7616,-733.554,0,0
133654,73.6704,-715.077,0,0
134956,74.8718,-696.573,0,0
136258,77.4093,-678.669,0,0
137559,80.5536,-661.74,0,0
138860.775,82.5907,-644.297,0,0
140162.4,85.9791,-625.577,0,0
141464.025,91.1787,-606.736,0,0
142765.65,97.1737,-588.318,0,0
144067.275,104.293,-569.61,0,0
145368.9,113.091,-550.938,0,0
146670.525,123.309,-532.61,0,0
147972.15,134.902,-515.03,0,0
149273.775,148.399,-496.986,0,0
150575.4,164.846,-480.07,0,0
151877.025,184.828,-465.843,0,0
153178.65,207.035,-456.256,0,0
154480,226.584,-453.039,0,0
155782,242.076,-449.545,0,0
157084,256.046,-445.904,0,0
158385,272.794,-438.877,0,0
159687,295.301,-438.317,0,0
160988,312.703,-447.485,0,0
162290,317.17,-454.537,0,0
163592,323.332,-451.926,0,0
164893,336.307,-446.183,0,0
166195,353.98,-444.765,0,0
167497,379.296,-449.446,0,0
168798,401.979,-472.835,0,0
170100,408.781,-503.908,0,0
171401.375,395.667,-537.114,0,0
172703.0,367.098,-553.799,0,0
174004.625,335.788,-550.862,0,0
175306.25,312.756,-534.718,0,0
176607.875,300.132,-511.995,0,0
177909.5,297.086,-489.467,0,0
179211.125,298.185,-469.943,0,0
180512.75,301.734,-451.613,0,0
181814.375,306.282,-433.663,0,0
183116.0,311.609,-414.329,0,0
184417.625,320.312,-392.098,0,0
185719.25,333.695,-368.607,0,0
187021,352.953,-345.06,0,0
188322,378.09,-322.41,0,0
189624,409.936,-302.476,0,0
190926,449.164,-287.334,0,0
192227,493.391,-280.834,0,0
193529,539.4,-283.474,0,0
194831,584.563,-293.722,0,0
196132,628.969,-310.393,0,0
197434,674.972,-333.779,0,0
198735,720.813,-370.52,0,0
200037,757.934,-422.276,0,0
201339,778.234,-482.392,0,0
202640.35,780.87,-540.223,0,0
203941.975,774.805,-588.061,0,0
205243.6,766.318,-633.113,0,0
206545.225,753.424,-676.865,0,0
207846.85,735.045,-723.674,0,0
209148.475,698.67,-764.454,0,0
210450.1,657.735,-785.769,0,0
211751.725,621.764,-795.333,0,0
213053.35,594.64,-795.277,0,0
214354.975,579.368,-793.533,0,0
215656.6,573.562,-800.903,0,0
216958.225,563.18,-817.809,0,0
218259.85,545.971,-835.677,0,0
219561,525.758,-850.753,0,0
220863,501.915,-867.026,0,0
222165,471.932,-879.265,0,0
223466,441.208,-884.523,0,0
224768,410.555,-885.969,0,0
226070,379.239,-883.805,0,0
227371,348.887,-874.883,0,0
228673,321.439,-861.838,0,0
229974,298.69,-843.832,0,0
231276,282.67,-824.324,0,0
232578,271.189,-806.359,0,0
233879,263.39,-789.412,0,0
235180.95,258.501,-774.988,0,0
236482.575,254.751,-763.472,0,0
237784.2,251.44,-752.884,0,0
239085.825,249.655,-744.573,0,0
240387.45,246.818,-738.878,0,0
241689.075,241.862,-734.295,0,0
242990.7,235.517,-728.867,0,0
244292.325,228.864,-722.417,0,0
245593.95,221.972,-714.728,0,0
246895.575,216.492,-705.634,0,0
248197.2,213.126,-697.554,0,0
249498.825,208.37,-691.092,0,0
250800,202.619,-683.545,0,0
252102,195.433,-675.706,0,0
253404,186.807,-662.873,0,0
254705,182.572,-646.223,0,0
256007,181.984,-628.019,0,0
257309,187.307,-609.063,0,0
258610,197.697,-592.118,0,0
259912,213.933,-578.432,0,0
261213,234.26,-571.601,0,0
262515,254.716,-572.607,0,0
263817,274.172,-581.021,0,0
265118,288.421,-595.359,0,0
266420,296.771,-615.457,0,0
267721.55,293.879,-636.689,0,0
269023.175,285.121,-653.168,0,0
270324.8,269.595,-663.679,0,0
271626.425,259.063,-665.539,0,0
272928.05,251.727,-671.089,0,0
274229.675,240.933,-677.948,0,0
275531.3,224.265,-683.454,0,0
276832.925,204.398,-680.909,0,0
278134.55,187.681,-670.179,0,0
279436.175,178.517,-655.314,0,0
280737.8,176.791,-643.739,0,0
282039.425,174.958,-636.175,0,0
283341,174.287,-627.696,0,0
284643,175.199,-623.145,0,0
285944,174.531,-619.91,0,0
287246,170.402,-616.475,0,0
288548,166.693,-606.747,0,0
289849,171.474,-594.927,0,0
291151,183.075,-590.255,0,0
292452,193.97,-594.475,0,0
293754,200.337,-605.795,0,0
295056,196.644,-619.948,0,0
296357,184.972,-628.677,0,0
297659,172.189,-630.269,0,0
298960.525,161.996,-628.064,0,0
300262.15,153.571,-625.221,0,0
301563.775,145.124,-621.486,0,0
302865.4,137.88,-615.911,0,0
304167.025,132.138,-609.722,0,0
305468.65,128.133,-603.168,0,0
306770.275,125.945,-597.406,0,0
308071.9,124.278,-593.249,0,0
309373.525,122.069,-590.161,0,0
310675.15,119.097,-587.274,0,0
311976.775,115.317,-583.888,0,0
313278.4,111.967,-579.435,0,0
314580,109.64,-574.935,0,0
315882,108.02,-571.04,0,0
317183,106.415,-568.07,0,0
318485,104.452,-565.942,0,0
319787,101.414,-564.242,0,0
321088,97.3203,-562.474,0,0
322390,91.2285,-559.653,0,0
323691,84.9501,-553.778,0,0
324993,81.1272,-546.33,0,0
326295,78.8895,-539.374,0,0
327596,77.113,-532.67,0,0
328898,75.934,-525.767,0,0
330200,76.51,-518.819,0,0
331501.125,78.2678,-513.556,0,0
332802.75,79.5315,-510.027,0,0
334104.375,79.5397,-507.393,0,0
335406.0,78.3478,-504.25,0,0
336707.625,76.6088,-500.095,0,0
338009.25,75.3901,-494.527,0,0
339310.875,75.6464,-488.132,0,0
340612.5,77.6357,-482.074,0,0
341914.125,81.5262,-477.248,0,0
343215.75,86.2065,-475.317,0,0
344517.375,89.0551,-475.982,0,0
345819.0,89.2818,-476.996,0,0
347121,88.111,-477.045,0,0
348422,86.1721,-476.197,0,0
349724,83.8035,-474.361,0,0
351025,81.6685,-471.495,0,0
352327,79.9464,-467.771,0,0
353629,79.4455,-463.535,0,0
354930,80.2459,-460.21,0,0
356232,80.5367,-458.064,0,0
357534,80.0457,-456.283,0,0
358835,78.2517,-453.715,0,0
360137,77.0882,-449.378,0,0
361438,77.3419,-444.959,0,0
362740.1,78.7092,-441.149,0,0
364041.725,80.0567,-438.73,0,0
365343.35,80.0767,-436.337,0,0
366644.975,80.2479,-432.519,0,0
367946.6,81.7728,-428.154,0,0
369248.225,85.0514,-424.256,0,0
370549.85,89.4567,-422.019,0,0
371851.475,94.499,-422.04,0,0
373153.1,98.0137,-425.016,0,0
374454.725,98.007,-428.574,0,0
375756.35,96.2281,-430.149,0,0
377057.975,94.7803,-430.566,0,0
378359.6,93.236,-430.75,0,0
379661,91.7142,-430.589,0,0
380963,89.9738,-430.193,0,0
382264,88.4155,-429.02,0,0
383566,88.3964,-428.89,0,0
384868,86.0874,-430.658,0,0
386169,81.4801,-430.678,0,0
387471,76.654,-428.179,0,0
388773,73.5829,-423.496,0,0
390074,73.2966,-419.153,0,0
391376,74.1882,-417.295,0,0
392677,73.1364,-417.604,0,0
393979,69.5624,-416.876,0,0
395280.7,65.743,-414.028,0,0
396582.325,62.776,-409.985,0,0
397883.95,60.6754,-405.542,0,0
399185.575,59.21,-400.986,0,0
400006.6,58.5412,-397.933,0,0