Folder: ML_Dmg_Mehdi_Dataset/Accelerated corrosion test data/2025-10-10_06-00-03 (part 2)

File: sample_3.csv
Frequency (Hz),Impedance (ohms),Phase (Radians),Temperature (C),Humidity (%)
10000.0,251.387,-11798.1,0,0
11301.625,223.623,-10450.4,0,0
12603.25,202.796,-9378.88,0,0
13904.875,185.267,-8505.84,0,0
15206.5,173.702,-7775.38,0,0
16508.125,161.638,-7180.21,0,0
17809.75,156.052,-6651.32,0,0
19111.375,146.155,-6199.31,0,0
20413.0,158.768,-5798.81,0,0
21714.625,138.665,-5477.31,0,0
23016.25,127.72,-5171.93,0,0
24317.875,118.836,-4892.47,0,0
25619.5,113.288,-4644.67,0,0
26921.1,108.619,-4414.8,0,0
28222.7,103.829,-4207.56,0,0
29524.4,108.492,-4030.22,0,0
30826,101.195,-3858.15,0,0
32127.6,101.425,-3693.54,0,0
33429.2,99.4658,-3568.49,0,0
34730.9,87.627,-3430.97,0,0
36032.5,83.2705,-3303.1,0,0
37334.1,79.9903,-3184.9,0,0
38635.7,77.7688,-3075.15,0,0
39937.4,75.7515,-2972.55,0,0
41239,74.0615,-2875.5,0,0
42540.6,73.0895,-2785.89,0,0
43842.225,71.6479,-2700.22,0,0
45143.85,70.9861,-2620.56,0,0
46445.475,69.656,-2544.95,0,0
47747.1,70.1485,-2472.15,0,0
49048.725,68.3766,-2406.71,0,0
50350.35,66.3926,-2341.51,0,0
51651.975,66.1678,-2278.88,0,0
52953.6,66.4129,-2219,0,0
54255.225,69.1679,-2164.06,0,0
55556.85,66.5667,-2116.65,0,0
56858.475,61.6387,-2063.73,0,0
58160.1,61.0761,-2011.83,0,0
59461.7,61.5621,-1962.56,0,0
60763.3,62.9422,-1915.84,0,0
62065,64.9129,-1871.16,0,0
63366.6,68.6591,-1827.6,0,0
64668.2,77.1187,-1785.74,0,0
65969.8,91.8698,-1759.93,0,0
67271.5,75.9049,-1734.86,0,0
68573.1,76.0902,-1697.18,0,0
69874.7,75.8913,-1668.03,0,0
71176.3,70.701,-1637.59,0,0
72478,69.3294,-1604.84,0,0
73779.6,67.873,-1576.54,0,0
75081.2,64.2806,-1548.39,0,0
76382.825,60.7396,-1519.16,0,0
77684.45,58.1768,-1490.24,0,0
78986.075,55.8389,-1461.77,0,0
80287.7,54.3878,-1433.76,0,0
81589.325,53.3619,-1406.51,0,0
82890.95,52.7604,-1380.03,0,0
84192.575,52.4401,-1354.37,0,0
85494.2,52.3869,-1329.36,0,0
86795.825,52.4482,-1305,0,0
88097.45,53.0414,-1281.06,0,0
89399.075,54.3094,-1257.31,0,0
90700.7,56.6522,-1235.56,0,0
92002.3,59.0263,-1214.67,0,0
93303.9,62.0631,-1195.9,0,0
94605.6,63.1353,-1181.39,0,0
95907.2,57.9603,-1163.8,0,0
97208.8,56.602,-1142.63,0,0
98510.4,56.4867,-1123.12,0,0
99812.1,55.9019,-1104.27,0,0
101114,55.3856,-1084.59,0,0
102415,56.5555,-1064.15,0,0
103717,60.476,-1046.34,0,0
105019,63.8891,-1032.28,0,0
106320.175,63.1698,-1018.79,0,0
107621.8,60.6402,-1003.11,0,0
108923.425,58.8031,-985.497,0,0
110225.05,58.7912,-966.913,0,0
111526.675,61.0272,-949.06,0,0
112828.3,63.2711,-933.039,0,0
114129.925,64.7785,-917.057,0,0
115431.55,66.8421,-900.205,0,0
116733.175,70.5664,-883.635,0,0
118034.8,76.247,-867.738,0,0
119336.425,82.9315,-855.933,0,0
120638.05,88.8211,-849.393,0,0
121939.675,86.225,-841.145,0,0
123241,86.5637,-827.799,0,0
124543,88.1419,-816.433,0,0
125845,89.4352,-806.103,0,0
127146,88.8894,-796.382,0,0
128448,87.2588,-785.617,0,0
129749,85.6377,-772.58,0,0
131051,86.6533,-759.575,0,0
132353,86.0915,-748.539,0,0
133654,85.4845,-736.546,0,0
134956,84.0429,-724.06,0,0
136258,82.6596,-710.566,0,0
137559,82.4968,-695.475,0,0
138860.775,83.8789,-682.059,0,0
140162.4,82.937,-668.684,0,0
141464.025,82.7859,-654.471,0,0
142765.65,82.0026,-638.65,0,0
144067.275,82.3004,-621.525,0,0
145368.9,83.8925,-603.605,0,0
146670.525,86.4879,-584.817,0,0
147972.15,90.768,-565.007,0,0
149273.775,97.1992,-544.875,0,0
150575.4,107.389,-524.426,0,0
151877.025,119.978,-507.656,0,0
153178.65,132.753,-493.66,0,0
154480,142.976,-481.545,0,0
155782,151.153,-465.909,0,0
157084,162.575,-448.371,0,0
158385,179.331,-436.363,0,0
159687,184.267,-422.712,0,0
160988,199.28,-394.151,0,0
162290,224.965,-369.033,0,0
163592,260.558,-348.788,0,0
164893,308.045,-336.6,0,0
166195,360.387,-348.816,0,0
167497,399.146,-380.991,0,0
168798,421.222,-416.233,0,0
170100,423.134,-457.543,0,0
171401.375,408.983,-475.371,0,0
172703.0,403.301,-480.052,0,0
174004.625,411.457,-487.136,0,0
175306.25,415.798,-505.86,0,0
176607.875,409.495,-524.732,0,0
177909.5,388.975,-542.233,0,0
179211.125,365.127,-535.49,0,0
180512.75,359.544,-521.596,0,0
181814.375,364.146,-517.179,0,0
183116.0,357.535,-524.392,0,0
184417.625,342.559,-522.231,0,0
185719.25,328.744,-509.696,0,0
187021,322.377,-487.085,0,0
188322,328.199,-467.26,0,0
189624,333.71,-452.957,0,0
190926,343.397,-438.441,0,0
192227,352.602,-425.003,0,0
193529,363.326,-407.23,0,0
194831,386.021,-388.839,0,0
196132,418.774,-384.316,0,0
197434,440.778,-396.595,0,0
198735,453.675,-401.483,0,0
200037,465.453,-404.687,0,0
201339,471.119,-402.168,0,0
202640.35,488.858,-392.909,0,0
203941.975,518.406,-390.851,0,0
205243.6,547.511,-402.68,0,0
206545.225,561.979,-420.3,0,0
207846.85,578.265,-420.367,0,0
209148.475,609.748,-427.816,0,0
210450.1,643.022,-448.773,0,0
211751.725,670.874,-480.225,0,0
213053.35,692.009,-515.498,0,0
214354.975,706.947,-557.492,0,0
215656.6,715.343,-602.688,0,0
216958.225,712.38,-650.813,0,0
218259.85,698.757,-693.695,0,0
219561,679.865,-730.994,0,0
220863,660.926,-769.203,0,0
222165,630.266,-806.375,0,0
223466,587.065,-832.937,0,0
224768,543.666,-836.739,0,0
226070,520.501,-832.451,0,0
227371,504.529,-840.866,0,0
228673,480.226,-853.786,0,0
229974,451.071,-860.004,0,0
231276,423.06,-861.633,0,0
232578,397.436,-859.624,0,0
233879,373.49,-856.466,0,0
235180.95,350.495,-852.216,0,0
236482.575,326.775,-847.457,0,0
237784.2,302.781,-839.328,0,0
239085.825,278.72,-825.934,0,0
240387.45,260.832,-808.047,0,0
241689.075,246.821,-790.809,0,0
242990.7,237.963,-772.542,0,0
244292.325,232.647,-757.51,0,0
245593.95,227.879,-745.55,0,0
246895.575,222.515,-733.816,0,0
248197.2,218.213,-721.817,0,0
249498.825,217.364,-710.537,0,0
250800,216.348,-704.368,0,0
252102,210.661,-698.839,0,0
253404,202.23,-689.027,0,0
254705,196.859,-674.028,0,0
256007,196.837,-657.048,0,0
257309,204.524,-642.085,0,0
258610,213.398,-633.892,0,0
259912,224.122,-625.871,0,0
261213,239.442,-625.856,0,0
262515,250.472,-637.411,0,0
263817,250.049,-651.882,0,0
265118,240.658,-663.561,0,0
266420,226.14,-667.577,0,0
267721.55,211.909,-663.853,0,0
269023.175,202.248,-654.998,0,0
270324.8,196.772,-646.162,0,0
271626.425,194.247,-636.817,0,0
272928.05,194.039,-629.792,0,0
274229.675,192.89,-622.182,0,0
275531.3,195.808,-613.586,0,0
276832.925,203.233,-608.394,0,0
278134.55,211.179,-609.985,0,0
279436.175,215.176,-616.332,0,0
280737.8,213.305,-624.002,0,0
282039.425,207.357,-629.376,0,0
283341,199.046,-631.684,0,0
284643,190.201,-630.805,0,0
285944,182.015,-626.795,0,0
287246,176.371,-620.231,0,0
288548,174.897,-613.71,0,0
289849,174.584,-610.586,0,0
291151,172.848,-608.6,0,0
292452,169.483,-606.215,0,0
293754,167.278,-601.068,0,0
295056,168.779,-596.933,0,0
296357,171.219,-596.706,0,0
297659,171.155,-599.336,0,0
298960.525,167.768,-602.232,0,0
300262.15,162.627,-603.652,0,0
301563.775,156.445,-603.719,0,0
302865.4,149.747,-601.918,0,0
304167.025,143.684,-598.814,0,0
305468.65,138.187,-594.494,0,0
306770.275,133.975,-589.203,0,0
308071.9,131.685,-584.272,0,0
309373.525,129.938,-580.895,0,0
310675.15,127.301,-578.436,0,0
311976.775,123.542,-575.72,0,0
313278.4,118.913,-571.603,0,0
314580,115.35,-565.679,0,0
315882,113.894,-558.937,0,0
317183,114.667,-553.691,0,0
318485,115.334,-550.387,0,0
319787,115.21,-547.581,0,0
321088,115.238,-544.68,0,0
322390,116.227,-542.345,0,0
323691,116.965,-542.367,0,0
324993,115.688,-543.207,0,0
326295,112.628,-543.873,0,0
327596,108.333,-543.33,0,0
328898,103.986,-541.453,0,0
330200,99.7822,-538.892,0,0
331501.125,95.6781,-536.115,0,0
332802.75,91.2413,-532.557,0,0
334104.375,86.8411,-528.236,0,0
335406.0,83.0308,-522.798,0,0
336707.625,80.2606,-516.768,0,0
338009.25,78.2308,-510.717,0,0
339310.875,76.8969,-504.315,0,0
340612.5,76.8702,-497.571,0,0
341914.125,78.7043,-491.601,0,0
343215.75,81.2933,-487.763,0,0
344517.375,83.1312,-485.546,0,0
345819.0,83.4298,-483.978,0,0
347121,82.9571,-481.681,0,0
348422,82.3616,-479.055,0,0
349724,81.9807,-475.7,0,0
351025,82.7688,-472.168,0,0
352327,84.3844,-470.123,0,0
353629,84.7433,-469.803,0,0
354930,83.2105,-468.924,0,0
356232,81.5497,-466.83,0,0
357534,79.902,-464.174,0,0
358835,78.6676,-460.724,0,0
360137,78.4308,-457.231,0,0
361438,78.4618,-454.361,0,0
362740.1,78.293,-451.466,0,0
364041.725,78.6799,-448.227,0,0
365343.35,80.2536,-446.118,0,0
366644.975,80.7034,-445.916,0,0
367946.6,79.027,-445.273,0,0
369248.225,76.4955,-442.563,0,0
370549.85,76.0149,-438.033,0,0
371851.475,77.8148,-435.329,0,0
373153.1,78.2983,-434.993,0,0
374454.725,76.5378,-433.928,0,0
375756.35,74.6976,-431.301,0,0
377057.975,73.8035,-427.517,0,0
378359.6,74.1994,-424.028,0,0
379661,75.1523,-421.3,0,0
380963,76.0758,-419.74,0,0
382264,76.2266,-418.313,0,0
383566,76.0043,-417.09,0,0
384868,75.134,-415.757,0,0
386169,73.7909,-413.705,0,0
387471,72.6706,-411.121,0,0
388773,71.5838,-407.962,0,0
390074,71.1896,-404.125,0,0
391376,71.7794,-400.135,0,0
392677,73.4565,-396.506,0,0
393979,75.9749,-393.979,0,0
395280.7,78.3717,-392.684,0,0
396582.325,80.2292,-392.334,0,0
397883.95,81.355,-392.665,0,0
399185.575,81.262,-393.289,0,0
400006.6,80.6882,-393.344,0,0

File: sample_4.csv
Frequency (Hz),Impedance (ohms),Phase (Radians),Temperature (C),Humidity (%)
10000.0,263.753,-11871.3,0,0
11301.625,234.547,-10517.1,0,0
12603.25,212.905,-9435.85,0,0
13904.875,192.711,-8555.48,0,0
15206.5,181.714,-7831.41,0,0
16508.125,186.017,-7215.01,0,0
17809.75,156.313,-6708.24,0,0
19111.375,145.505,-6251.91,0,0
20413.0,141.023,-5851.74,0,0
21714.625,145.484,-5506.58,0,0
23016.25,125.053,-5206.8,0,0
24317.875,116.51,-4922.08,0,0
25619.5,112.23,-4668.59,0,0
26921.1,107.082,-4439.41,0,0
28222.7,120.005,-4235.3,0,0
29524.4,113.218,-4056.58,0,0
30826,98.7287,-3885.27,0,0
32127.6,99.7532,-3725.12,0,0
33429.2,89.925,-3584.31,0,0
34730.9,84.9409,-3445.94,0,0
36032.5,81.763,-3318.35,0,0
37334.1,79.8564,-3199.75,0,0
38635.7,77.3181,-3087.79,0,0
39937.4,76.8973,-2982.26,0,0
41239,80.3238,-2887.62,0,0
42540.6,78.9468,-2799.86,0,0
43842.225,74.1839,-2716.48,0,0
45143.85,71.4142,-2635.62,0,0
46445.475,70.4597,-2558,0,0
47747.1,69.9605,-2488.51,0,0
49048.725,66.0583,-2419.31,0,0
50350.35,64.6303,-2351.88,0,0
51651.975,63.9119,-2287.21,0,0
52953.6,65.6046,-2224.36,0,0
54255.225,73.6701,-2167.93,0,0
55556.85,71.9952,-2124.96,0,0
56858.475,65.8243,-2071.02,0,0
58160.1,66.7447,-2018.54,0,0
59461.7,70.7099,-1968.41,0,0
60763.3,79.864,-1930.04,0,0
62065,69.9521,-1896.82,0,0
63366.6,64.2147,-1851.66,0,0
64668.2,64.5625,-1808.19,0,0
65969.8,66.5435,-1767.78,0,0
67271.5,70.3363,-1731.61,0,0
68573.1,73.7815,-1702.34,0,0
69874.7,66.4724,-1672.69,0,0
71176.3,64.7458,-1638.38,0,0
72478,59.2443,-1607.2,0,0
73779.6,57.8005,-1570.53,0,0
75081.2,59.7792,-1537.73,0,0
76382.825,62.2215,-1508.88,0,0
77684.45,65.0019,-1481.13,0,0
78986.075,63.9488,-1458.72,0,0
80287.7,60.8728,-1431.91,0,0
81589.325,60.3632,-1405.83,0,0
82890.95,59.1044,-1380.87,0,0
84192.575,57.8925,-1356.02,0,0
85494.2,57.0122,-1331.76,0,0
86795.825,56.375,-1308.11,0,0
88097.45,55.0163,-1285.64,0,0
89399.075,53.4595,-1261.35,0,0
90700.7,53.3685,-1238.25,0,0
92002.3,53.6744,-1215.14,0,0
93303.9,54.9845,-1194.38,0,0
94605.6,53.5569,-1174.07,0,0
95907.2,52.9753,-1151.64,0,0
97208.8,53.7476,-1129.94,0,0
98510.4,55.007,-1108.53,0,0
99812.1,57.4656,-1087.88,0,0
101114,61.5891,-1069.12,0,0
102415,61.0454,-1054.68,0,0
103717,57.9981,-1032.18,0,0
105019,61.6302,-1008.63,0,0
106320.175,68.0449,-988.16,0,0
107621.8,74.7475,-970.168,0,0
108923.425,82.9369,-953.32,0,0
110225.05,91.0399,-940.497,0,0
111526.675,97.2613,-929.481,0,0
112828.3,102.57,-919.379,0,0
114129.925,106.278,-910.617,0,0
115431.55,108.369,-902.461,0,0
116733.175,108.149,-894.166,0,0
118034.8,106.12,-883.515,0,0
119336.425,107.186,-869.76,0,0
120638.05,112.384,-864.723,0,0
121939.675,105.49,-858.619,0,0
123241,100.669,-846.42,0,0
124543,97.5708,-833.877,0,0
125845,95.506,-821.603,0,0
127146,92.3371,-810.851,0,0
128448,87.4167,-799.229,0,0
129749,80.8051,-784.771,0,0
131051,75.7933,-767.141,0,0
132353,73.0529,-748.409,0,0
133654,72.1618,-729.406,0,0
134956,72.7561,-710.519,0,0
136258,74.8148,-692.04,0,0
137559,77.5252,-674.703,0,0
138860.775,79.455,-656.929,0,0
140162.4,82.6765,-637.938,0,0
141464.025,87.7023,-618.956,0,0
142765.65,93.6333,-600.76,0,0
144067.275,100.272,-582.56,0,0
145368.9,107.873,-564.008,0,0
146670.525,117.085,-545.287,0,0
147972.15,127.948,-527.265,0,0
149273.775,140.413,-509.086,0,0
150575.4,155.162,-491.392,0,0
151877.025,173.742,-474.972,0,0
153178.65,195.771,-462.603,0,0
154480,217.53,-457.277,0,0
155782,234.564,-453.186,0,0
157084,250.157,-451.667,0,0
158385,264.917,-446.271,0,0
159687,285.055,-443.593,0,0
160988,303.46,-450.868,0,0
162290,309.979,-457.236,0,0
163592,314.585,-456.637,0,0
164893,323.834,-450.553,0,0
166195,338.365,-443.874,0,0
167497,364.179,-441.818,0,0
168798,392.134,-457.552,0,0
170100,409.037,-485.303,0,0
171401.375,407.161,-523.668,0,0
172703.0,383.059,-549.91,0,0
174004.625,349.861,-556.479,0,0
175306.25,321.956,-545.778,0,0
176607.875,303.437,-524.527,0,0
177909.5,296.47,-500.875,0,0
179211.125,295.697,-479.961,0,0
180512.75,299.12,-460.956,0,0
181814.375,303.4,-444.278,0,0
183116.0,306.522,-427.454,0,0
184417.625,310.702,-406.942,0,0
185719.25,318.462,-383.596,0,0
187021,330.945,-358.263,0,0
188322,348.488,-331.648,0,0
189624,372.688,-304.021,0,0
190926,405.827,-277.313,0,0
192227,447.815,-254.969,0,0
193529,497.808,-239.973,0,0
194831,552.93,-234.01,0,0
196132,612.012,-236.056,0,0
197434,678.346,-247.477,0,0
198735,751.939,-276.76,0,0
200037,823.852,-333.591,0,0
201339,875.45,-415.476,0,0
202640.35,896.934,-506.344,0,0
203941.975,895.709,-591.086,0,0
205243.6,876.585,-669.764,0,0
206545.225,845.262,-735.628,0,0
207846.85,806.896,-799.608,0,0
209148.475,746.3,-847.185,0,0
210450.1,686.058,-868.287,0,0
211751.725,634.734,-874.292,0,0
213053.35,595.376,-870.918,0,0
214354.975,566.468,-864.138,0,0
215656.6,550.618,-863.236,0,0
216958.225,530.33,-871.46,0,0
218259.85,507.585,-875.465,0,0
219561,486.178,-879.301,0,0
220863,463.641,-883.77,0,0
222165,440.01,-885.726,0,0
223466,417.511,-885.578,0,0
224768,395.886,-885.679,0,0
226070,371.378,-886.729,0,0
227371,343.667,-882.998,0,0
228673,315.675,-873.896,0,0
229974,291.28,-858.224,0,0
231276,272.799,-840.336,0,0
232578,258.66,-822.761,0,0
233879,247.772,-805.535,0,0
235180.95,239.346,-789.404,0,0
236482.575,232.922,-775.202,0,0
237784.2,227.321,-760.41,0,0
239085.825,225.404,-746.973,0,0
240387.45,224.417,-736.818,0,0
241689.075,222.828,-729.026,0,0
242990.7,219.99,-722.804,0,0
244292.325,215.322,-716.917,0,0
245593.95,208.762,-709.281,0,0
246895.575,203.252,-699.308,0,0
248197.2,200.566,-688.827,0,0
249498.825,198.252,-680.197,0,0
250800,195.848,-671.852,0,0
252102,192.584,-664.371,0,0
253404,186.791,-655.024,0,0
254705,182.448,-641.354,0,0
256007,180.587,-625.56,0,0
257309,183.514,-607.478,0,0
258610,191.917,-589.814,0,0
259912,206.136,-574.52,0,0
261213,225.304,-564.711,0,0
262515,245.619,-562.557,0,0
263817,266.366,-565.669,0,0
265118,285.028,-577.384,0,0
266420,298.49,-594.443,0,0
267721.55,303.794,-616.105,0,0
269023.175,301.372,-637.47,0,0
270324.8,288.332,-655.137,0,0
271626.425,275.947,-662.33,0,0
272928.05,266.878,-670.278,0,0
274229.675,254.919,-679.227,0,0
275531.3,237.499,-686.435,0,0
276832.925,216.021,-685.948,0,0
278134.55,196.944,-676.352,0,0
279436.175,185.746,-660.841,0,0
280737.8,183.917,-648.594,0,0
282039.425,182.468,-641.368,0,0
283341,181.528,-633.887,0,0
284643,182.276,-630.977,0,0
285944,179.254,-629.842,0,0
287246,172.04,-626.47,0,0
288548,165.796,-616.969,0,0
289849,166.278,-603.066,0,0
291151,175.824,-593.366,0,0
292452,188.187,-592.672,0,0
293754,197.389,-600.725,0,0
295056,198.552,-613.388,0,0
296357,190.946,-624.239,0,0
297659,179.324,-628.462,0,0
298960.525,169.337,-628.079,0,0
300262.15,160.834,-626.414,0,0
301563.775,152.559,-623.878,0,0
302865.4,145.112,-619.565,0,0
304167.025,138.643,-615.051,0,0
305468.65,132.819,-609.449,0,0
306770.275,128.529,-603.194,0,0
308071.9,126.126,-597.44,0,0
309373.525,124.411,-593.406,0,0
310675.15,121.698,-590.373,0,0
311976.775,118.132,-586.567,0,0
313278.4,115.003,-582.124,0,0
314580,112.928,-577.241,0,0
315882,111.731,-573.292,0,0
317183,110.846,-570.293,0,0
318485,109.489,-568.4,0,0
319787,107.362,-567.282,0,0
321088,103.446,-566.692,0,0
322390,97.3713,-565.199,0,0
323691,90.1173,-560.318,0,0
324993,85.4037,-553.184,0,0
326295,82.5832,-546.508,0,0
327596,79.952,-540.045,0,0
328898,77.9936,-533.063,0,0
330200,77.7,-525.769,0,0
331501.125,78.9879,-519.882,0,0
332802.75,80.2027,-515.957,0,0
334104.375,80.2817,-512.979,0,0
335406.0,79.0595,-509.919,0,0
336707.625,77.0504,-505.901,0,0
338009.25,75.4195,-500.245,0,0
339310.875,75.0889,-493.981,0,0
340612.5,76.2348,-487.581,0,0
341914.125,79.0061,-481.776,0,0
343215.75,83.4381,-477.983,0,0
344517.375,87.2469,-477.008,0,0
345819.0,89.1295,-477.324,0,0
347121,89.2659,-477.757,0,0
348422,88.1259,-477.476,0,0
349724,86.3223,-476.363,0,0
351025,84.1896,-474.228,0,0
352327,82.2886,-471.281,0,0
353629,81.0903,-467.494,0,0
354930,81.2107,-463.831,0,0
356232,81.4158,-461.36,0,0
357534,80.945,-459.311,0,0
358835,79.5342,-456.79,0,0
360137,78.279,-453.015,0,0
361438,77.9391,-448.797,0,0
362740.1,78.5742,-444.695,0,0
364041.725,79.553,-441.517,0,0
365343.35,79.7857,-438.621,0,0
366644.975,79.8107,-434.677,0,0
367946.6,81.0907,-429.974,0,0
369248.225,83.9558,-425.341,0,0
370549.85,88.4914,-421.909,0,0
371851.475,93.7951,-420.6,0,0
373153.1,98.7214,-422.034,0,0
374454.725,101.168,-425.327,0,0
375756.35,101.001,-428.176,0,0
377057.975,99.9292,-429.525,0,0
378359.6,99.12,-430.335,0,0
379661,97.777,-431.089,0,0
380963,96.2586,-431.037,0,0
382264,94.926,-430.278,0,0
383566,95.5443,-430.23,0,0
384868,94.472,-433.224,0,0
386169,89.8235,-435.355,0,0
387471,83.7947,-434.125,0,0
388773,79.4783,-429.922,0,0
390074,78.3761,-425.284,0,0
391376,79.123,-423.224,0,0
392677,78.3277,-423.874,0,0
393979,74.2683,-423.965,0,0
395280.7,69.4823,-421.416,0,0
396582.325,65.7527,-417.11,0,0
397883.95,63.2806,-412.349,0,0
399185.575,61.5174,-407.527,0,0
400006.6,60.7593,-404.304,0,0