Folder: ML_Dmg_Mehdi_Dataset/Accelerated corrosion test data/2025-10-05_06-00-04 (part 4)

File: sample_8.csv
Frequency (Hz),Impedance (ohms),Phase (Radians),Temperature (C),Humidity (%)
10000.0,309.731,-10950.1,0,0
11301.625,274.559,-9704.03,0,0
12603.25,252.484,-8714.31,0,0
13904.875,224.784,-7914.69,0,0
15206.5,204.482,-7242.18,0,0
16508.125,188.616,-6676.67,0,0
17809.75,175.129,-6190.88,0,0
19111.375,166.93,-5770.16,0,0
20413.0,159.109,-5408.44,0,0
21714.625,149.828,-5088.15,0,0
23016.25,143.79,-4805.68,0,0
24317.875,133.629,-4549.54,0,0
25619.5,126.728,-4317.25,0,0
26921.1,121.361,-4106.94,0,0
28222.7,118.429,-3916.56,0,0
29524.4,115.943,-3743.94,0,0
30826,114.142,-3586.75,0,0
32127.6,111.814,-3441.18,0,0
33429.2,112.903,-3306.28,0,0
34730.9,111.149,-3188.59,0,0
36032.5,106.311,-3078.67,0,0
37334.1,99.1482,-2972.8,0,0
38635.7,92.089,-2871.88,0,0
39937.4,86.7515,-2775.68,0,0
41239,84.3426,-2685.16,0,0
42540.6,81.8846,-2600.34,0,0
43842.225,81.2783,-2522.11,0,0
45143.85,78.213,-2447.97,0,0
46445.475,75.5337,-2377.31,0,0
47747.1,74.1829,-2309.98,0,0
49048.725,72.2222,-2247.33,0,0
50350.35,70.4435,-2186.37,0,0
51651.975,69.4727,-2128.48,0,0
52953.6,69.1503,-2074.07,0,0
54255.225,67.8441,-2024.21,0,0
55556.85,64.7861,-1974.76,0,0
56858.475,62.6884,-1925.78,0,0
58160.1,61.9125,-1879.06,0,0
59461.7,61.8389,-1835.39,0,0
60763.3,60.2485,-1792.62,0,0
62065,60.1781,-1751.74,0,0
63366.6,60.6828,-1711.87,0,0
64668.2,62.0674,-1675.92,0,0
65969.8,60.8735,-1641.69,0,0
67271.5,58.9125,-1607.23,0,0
68573.1,57.9878,-1573.13,0,0
69874.7,57.8052,-1539.9,0,0
71176.3,58.141,-1508.61,0,0
72478,58.4933,-1478.98,0,0
73779.6,57.312,-1449.9,0,0
75081.2,56.9643,-1421.23,0,0
76382.825,57.0962,-1393.36,0,0
77684.45,56.9355,-1366.71,0,0
78986.075,56.4372,-1340.37,0,0
80287.7,56.6045,-1314.27,0,0
81589.325,56.986,-1288.74,0,0
82890.95,58.565,-1263.93,0,0
84192.575,60.4109,-1240.62,0,0
85494.2,61.1306,-1219.55,0,0
86795.825,61.1824,-1196.45,0,0
88097.45,62.7208,-1173.91,0,0
89399.075,64.9075,-1152.41,0,0
90700.7,67.898,-1131.16,0,0
92002.3,72.8627,-1112.9,0,0
93303.9,74.5389,-1098.29,0,0
94605.6,74.5365,-1080.29,0,0
95907.2,76.0625,-1062.7,0,0
97208.8,77.8339,-1045.66,0,0
98510.4,80.3529,-1030.62,0,0
99812.1,80.3397,-1016.46,0,0
101114,80.9234,-1002.03,0,0
102415,79.9287,-987.754,0,0
103717,78.7869,-971.893,0,0
105019,78.589,-956.689,0,0
106320.175,79.3736,-940.644,0,0
107621.8,80.9075,-926.727,0,0
108923.425,80.7149,-912.721,0,0
110225.05,81.7074,-898.909,0,0
111526.675,81.7692,-885.95,0,0
112828.3,81.826,-872.586,0,0
114129.925,81.6037,-859.686,0,0
115431.55,81.2698,-846.288,0,0
116733.175,80.7276,-833.133,0,0
118034.8,80.4186,-819.164,0,0
119336.425,81.0247,-806.112,0,0
120638.05,80.6663,-792.993,0,0
121939.675,80.6303,-779.344,0,0
123241,81.0285,-766.317,0,0
124543,81.0992,-752.248,0,0
125845,82.6124,-738.651,0,0
127146,83.742,-725.954,0,0
128448,84.6225,-713.464,0,0
129749,85.0004,-700.787,0,0
131051,86.1346,-686.724,0,0
132353,87.1655,-674.602,0,0
133654,88.2105,-660.481,0,0
134956,89.7861,-646.666,0,0
136258,93.4801,-633.338,0,0
137559,94.5281,-622.857,0,0
138860.775,93.5245,-608.574,0,0
140162.4,94.9822,-593.201,0,0
141464.025,96.6432,-577.319,0,0
142765.65,99.4231,-560.518,0,0
144067.275,103.506,-543.04,0,0
145368.9,109.697,-523.663,0,0
146670.525,119.962,-506.581,0,0
147972.15,130.114,-492.54,0,0
149273.775,138.476,-474.698,0,0
150575.4,154.191,-455.902,0,0
151877.025,178.871,-445.26,0,0
153178.65,194.172,-447.28,0,0
154480,202.029,-444.403,0,0
155782,213.739,-437.148,0,0
157084,222.608,-443.208,0,0
158385,220.055,-431.782,0,0
159687,234.188,-420.89,0,0
160988,238.075,-420.426,0,0
162290,246.432,-405.834,0,0
163592,264.512,-401.092,0,0
164893,274.988,-405.547,0,0
166195,278.787,-412.686,0,0
167497,269.268,-411.41,0,0
168798,261.368,-398.307,0,0
170100,261.103,-378.32,0,0
171401.375,264.62,-356.923,0,0
172703.0,276.211,-331.399,0,0
174004.625,294.951,-311.98,0,0
175306.25,314.485,-297.209,0,0
176607.875,331.975,-279.187,0,0
177909.5,357.81,-261.468,0,0
179211.125,390.174,-245.064,0,0
180512.75,427.004,-240.322,0,0
181814.375,457.892,-240.302,0,0
183116.0,490.857,-241.465,0,0
184417.625,516.176,-246.435,0,0
185719.25,546.505,-243.358,0,0
187021,588.446,-243.457,0,0
188322,632.424,-252.969,0,0
189624,678.589,-278.263,0,0
190926,710.448,-302.347,0,0
192227,755.091,-324.15,0,0
193529,799.644,-354.441,0,0
194831,864.4,-409.503,0,0
196132,903.337,-495.796,0,0
197434,913.302,-602.219,0,0
198735,881.17,-701.18,0,0
200037,826.282,-778.524,0,0
201339,752.407,-828.7,0,0
202640.35,683.335,-854.449,0,0
203941.975,614.799,-856.216,0,0
205243.6,564.378,-842.477,0,0
206545.225,524.528,-824.3,0,0
207846.85,502.555,-798.702,0,0
209148.475,491.5,-782.255,0,0
210450.1,486.891,-767.798,0,0
211751.725,488.134,-763.316,0,0
213053.35,488.624,-766.602,0,0
214354.975,482.916,-776.082,0,0
215656.6,469.258,-784.062,0,0
216958.225,453.135,-783.826,0,0
218259.85,446.05,-777.6,0,0
219561,445.861,-778.96,0,0
220863,443.233,-786.235,0,0
222165,439.085,-796.427,0,0
223466,428.643,-811.449,0,0
224768,414.703,-821.969,0,0
226070,398.298,-835.61,0,0
227371,373.727,-844.898,0,0
228673,347.227,-845.558,0,0
229974,328.204,-843.26,0,0
231276,305.089,-843.685,0,0
232578,280.938,-837.236,0,0
233879,258.792,-826.547,0,0
235180.95,239.366,-812.3,0,0
236482.575,225.345,-795.411,0,0
237784.2,216.253,-779.396,0,0
239085.825,210.1,-765.149,0,0
240387.45,207.844,-755.803,0,0
241689.075,200.697,-750.346,0,0
242990.7,189.76,-742.459,0,0
244292.325,179.608,-730.014,0,0
245593.95,173.124,-715.897,0,0
246895.575,169.824,-701.47,0,0
248197.2,168.034,-690.903,0,0
249498.825,164.314,-679.013,0,0
250800,163.611,-664.81,0,0
252102,166.682,-651.208,0,0
253404,174.021,-642.16,0,0
254705,177.663,-637.997,0,0
256007,179.095,-631.613,0,0
257309,182.235,-624.814,0,0
258610,187.14,-618.058,0,0
259912,194.227,-614.158,0,0
261213,199.777,-613.183,0,0
262515,204.395,-613.04,0,0
263817,207.157,-613.313,0,0
265118,209.039,-612.602,0,0
266420,213.93,-609.041,0,0
267721.55,224.679,-608.485,0,0
269023.175,237.573,-616.32,0,0
270324.8,245.611,-632.703,0,0
271626.425,245.626,-654.039,0,0
272928.05,234.401,-675.32,0,0
274229.675,213.558,-690.014,0,0
275531.3,189.315,-693.817,0,0
276832.925,168.996,-688.82,0,0
278134.55,153.225,-680.73,0,0
279436.175,140.879,-670.802,0,0
280737.8,132.619,-659.088,0,0
282039.425,128.945,-648.87,0,0
283341,126.873,-641.607,0,0
284643,124.218,-635.298,0,0
285944,123.267,-628.564,0,0
287246,126.31,-625.104,0,0
288548,125.878,-629.016,0,0
289849,118.374,-631.477,0,0
291151,109.419,-629.355,0,0
292452,101.472,-626.036,0,0
293754,93.148,-620.581,0,0
295056,86.289,-613.673,0,0
296357,80.6203,-605.981,0,0
297659,76.3994,-597.978,0,0
298960.525,73.192,-590.054,0,0
300262.15,70.8978,-582.169,0,0
301563.775,69.777,-574.227,0,0
302865.4,70.1714,-567.211,0,0
304167.025,70.8577,-561.633,0,0
305468.65,71.4973,-556.719,0,0
306770.275,72.5124,-552.676,0,0
308071.9,73.1348,-549.654,0,0
309373.525,73.2085,-547.741,0,0
310675.15,71.6327,-545.637,0,0
311976.775,69.9698,-542.926,0,0
313278.4,68.1242,-540.177,0,0
314580,65.79,-537.142,0,0
315882,63.4359,-533.175,0,0
317183,61.8626,-528.892,0,0
318485,60.866,-524.629,0,0
319787,60.5305,-520.965,0,0
321088,60.1097,-518.152,0,0
322390,59.0616,-515.736,0,0
323691,57.5172,-513.218,0,0
324993,55.4378,-510.673,0,0
326295,53.0098,-507.422,0,0
327596,50.9442,-503.617,0,0
328898,49.1007,-499.61,0,0
330200,47.6289,-495.571,0,0
331501.125,46.1979,-491.37,0,0
332802.75,45.0844,-486.997,0,0
334104.375,44.365,-482.555,0,0
335406.0,44.1598,-478.329,0,0
336707.625,44.1716,-474.62,0,0
338009.25,44.1658,-471.315,0,0
339310.875,43.9346,-468.258,0,0
340612.5,43.2913,-465.244,0,0
341914.125,42.4398,-462.094,0,0
343215.75,41.673,-458.682,0,0
344517.375,41.0682,-454.996,0,0
345819.0,40.6911,-451.223,0,0
347121,40.5223,-447.478,0,0
348422,40.5921,-443.873,0,0
349724,40.8768,-440.447,0,0
351025,41.2847,-437.088,0,0
352327,41.7634,-434.071,0,0
353629,42.1313,-431.203,0,0
354930,42.5476,-428.443,0,0
356232,42.9365,-425.961,0,0
357534,43.0023,-423.638,0,0
358835,42.8489,-421.17,0,0
360137,42.6024,-418.374,0,0
361438,42.5388,-415.467,0,0
362740.1,42.6112,-412.532,0,0
364041.725,42.8911,-409.473,0,0
365343.35,43.4201,-406.476,0,0
366644.975,44.2454,-403.804,0,0
367946.6,44.8387,-401.396,0,0
369248.225,45.371,-398.826,0,0
370549.85,46.5031,-396.121,0,0
371851.475,47.8409,-394.349,0,0
373153.1,48.6636,-393.016,0,0
374454.725,48.9904,-391.706,0,0
375756.35,49.0668,-390.133,0,0
377057.975,49.3805,-388.422,0,0
378359.6,49.5998,-387.151,0,0
379661,49.0971,-385.659,0,0
380963,49.3328,-383.372,0,0
382264,50.1078,-382.643,0,0
383566,49.1083,-382.144,0,0
384868,47.5371,-380.633,0,0
386169,46.0765,-378.235,0,0
387471,45.1231,-375.435,0,0
388773,44.5943,-372.386,0,0
390074,44.6386,-369.515,0,0
391376,44.6947,-367.014,0,0
392677,44.6139,-364.521,0,0
393979,44.5675,-361.931,0,0
395280.7,44.7086,-359.284,0,0
396582.325,44.9951,-356.683,0,0
397883.95,45.45,-354.319,0,0
399185.575,45.6402,-352.094,0,0
400006.6,45.6808,-350.669,0,0