Folder: ML_Dmg_Mehdi_Dataset/Accelerated corrosion test data/2025-10-03_06-00-02 (part 2)

File: sample_3.csv
Frequency (Hz),Impedance (ohms),Phase (Radians),Temperature (C),Humidity (%)
10000.0,253.599,-11767,0,0
11301.625,225.666,-10422.9,0,0
12603.25,204.732,-9353.97,0,0
13904.875,186.807,-8483.51,0,0
15206.5,174.556,-7756.23,0,0
16508.125,163.607,-7162.18,0,0
17809.75,158.38,-6633.61,0,0
19111.375,147.13,-6182.76,0,0
20413.0,158.609,-5781.78,0,0
21714.625,139.575,-5463.93,0,0
23016.25,129.282,-5158.4,0,0
24317.875,120.524,-4879.39,0,0
25619.5,115.142,-4632.82,0,0
26921.1,109.021,-4403.32,0,0
28222.7,104.328,-4197.43,0,0
29524.4,110.819,-4018.43,0,0
30826,102.188,-3847.92,0,0
32127.6,102.034,-3684.67,0,0
33429.2,100.637,-3559.12,0,0
34730.9,88.3738,-3422.36,0,0
36032.5,84.1571,-3294.95,0,0
37334.1,81.1423,-3177.11,0,0
38635.7,78.7064,-3067.6,0,0
39937.4,76.3298,-2965.36,0,0
41239,75.0529,-2868.5,0,0
42540.6,74.0485,-2779.18,0,0
43842.225,72.4573,-2693.43,0,0
45143.85,71.4675,-2614.15,0,0
46445.475,70.7388,-2538.34,0,0
47747.1,70.5842,-2465.82,0,0
49048.725,69.1718,-2400.77,0,0
50350.35,67.2859,-2335.73,0,0
51651.975,66.9242,-2273.17,0,0
52953.6,67.2469,-2213.5,0,0
54255.225,69.7729,-2158.94,0,0
55556.85,67.5541,-2111.51,0,0
56858.475,62.3325,-2058.73,0,0
58160.1,61.7602,-2006.78,0,0
59461.7,62.3038,-1957.69,0,0
60763.3,63.7708,-1911.04,0,0
62065,65.7532,-1866.59,0,0
63366.6,69.3888,-1823.04,0,0
64668.2,77.7295,-1781.34,0,0
65969.8,92.2802,-1755.69,0,0
67271.5,77.1822,-1730.8,0,0
68573.1,76.8398,-1693.51,0,0
69874.7,76.351,-1664.09,0,0
71176.3,71.0259,-1633.69,0,0
72478,69.5778,-1601.05,0,0
73779.6,68.0273,-1572.67,0,0
75081.2,64.4761,-1544.49,0,0
76382.825,60.9912,-1515.23,0,0
77684.45,58.5608,-1486.4,0,0
78986.075,56.3314,-1457.85,0,0
80287.7,54.8075,-1429.92,0,0
81589.325,53.8511,-1402.75,0,0
82890.95,53.2661,-1376.31,0,0
84192.575,53.0118,-1350.76,0,0
85494.2,52.8435,-1325.65,0,0
86795.825,53.1074,-1301.42,0,0
88097.45,53.6175,-1277.5,0,0
89399.075,54.8571,-1253.64,0,0
90700.7,57.1059,-1231.71,0,0
92002.3,59.9636,-1210.68,0,0
93303.9,63.3497,-1192.21,0,0
94605.6,64.9501,-1177.62,0,0
95907.2,59.3524,-1160.53,0,0
97208.8,58.2822,-1139.61,0,0
98510.4,58.24,-1120.59,0,0
99812.1,57.51,-1102.18,0,0
101114,56.6171,-1082.66,0,0
102415,57.6782,-1062.18,0,0
103717,61.6358,-1044.29,0,0
105019,65.5432,-1030.61,0,0
106320.175,64.0287,-1017.82,0,0
107621.8,60.8016,-1001.92,0,0
108923.425,58.8566,-983.965,0,0
110225.05,58.8064,-965.034,0,0
111526.675,61.1968,-947.066,0,0
112828.3,63.313,-930.924,0,0
114129.925,64.887,-914.736,0,0
115431.55,67.2731,-898.144,0,0
116733.175,70.9842,-881.531,0,0
118034.8,76.6127,-865.937,0,0
119336.425,83.5209,-854.386,0,0
120638.05,88.5247,-847.975,0,0
121939.675,86.4157,-839.048,0,0
123241,86.7414,-826.048,0,0
124543,88.1278,-814.832,0,0
125845,89.0913,-804.579,0,0
127146,88.5052,-794.747,0,0
128448,86.6682,-783.688,0,0
129749,85.0073,-770.441,0,0
131051,85.9916,-757.117,0,0
132353,85.5577,-746.027,0,0
133654,84.8989,-733.786,0,0
134956,83.7235,-721.196,0,0
136258,82.548,-707.474,0,0
137559,82.5602,-692.546,0,0
138860.775,83.9899,-679.05,0,0
140162.4,83.2054,-665.779,0,0
141464.025,83.1573,-651.228,0,0
142765.65,82.6758,-635.655,0,0
144067.275,82.8973,-618.573,0,0
145368.9,84.5605,-600.751,0,0
146670.525,87.0471,-581.915,0,0
147972.15,91.6343,-562.097,0,0
149273.775,98.0413,-541.901,0,0
150575.4,108.089,-521.362,0,0
151877.025,121.143,-504.343,0,0
153178.65,133.969,-490.303,0,0
154480,144.48,-477.794,0,0
155782,153.285,-462.25,0,0
157084,164.899,-445.87,0,0
158385,180.483,-432.569,0,0
159687,188.359,-418.265,0,0
160988,201.624,-391.056,0,0
162290,229.108,-365.227,0,0
163592,267.104,-346.519,0,0
164893,313.376,-338.338,0,0
166195,365.874,-351.401,0,0
167497,402.344,-383.16,0,0
168798,422.162,-420.757,0,0
170100,426.968,-457.752,0,0
171401.375,410.619,-477.474,0,0
172703.0,405.997,-480.837,0,0
174004.625,412.295,-485.886,0,0
175306.25,419.472,-506.921,0,0
176607.875,410.06,-528.908,0,0
177909.5,390.912,-543.713,0,0
179211.125,365.78,-538.176,0,0
180512.75,357.709,-523.783,0,0
181814.375,362.198,-518.904,0,0
183116.0,356.036,-526.492,0,0
184417.625,341.393,-522.028,0,0
185719.25,328.447,-508.552,0,0
187021,322.108,-487.323,0,0
188322,327.754,-467.642,0,0
189624,334.028,-453.828,0,0
190926,343.731,-438.497,0,0
192227,352.845,-425.155,0,0
193529,364.362,-408.55,0,0
194831,386.486,-389.241,0,0
196132,419.333,-387.336,0,0
197434,442.628,-398.079,0,0
198735,452.998,-406.446,0,0
200037,461.696,-406.334,0,0
201339,469.612,-405.241,0,0
202640.35,483.684,-396.401,0,0
203941.975,511.615,-390.446,0,0
205243.6,542.998,-399.174,0,0
206545.225,560.916,-417.96,0,0
207846.85,576.576,-421.992,0,0
209148.475,604.097,-427.702,0,0
210450.1,638.257,-446.063,0,0
211751.725,666.437,-475.296,0,0
213053.35,689.106,-509.551,0,0
214354.975,707.31,-551.271,0,0
215656.6,715.794,-596.73,0,0
216958.225,716.885,-644.317,0,0
218259.85,704.756,-692.744,0,0
219561,681.817,-732.759,0,0
220863,664.726,-767.644,0,0
222165,632.587,-807.513,0,0
223466,589.392,-834.145,0,0
224768,545.688,-839.257,0,0
226070,520.135,-835.979,0,0
227371,503.16,-843.963,0,0
228673,479.252,-855.223,0,0
229974,449.856,-863.104,0,0
231276,420.131,-864.695,0,0
232578,393.301,-861.393,0,0
233879,369.122,-857.128,0,0
235180.95,346.138,-852.449,0,0
236482.575,322.597,-847.223,0,0
237784.2,298.455,-837.898,0,0
239085.825,275.01,-824.474,0,0
240387.45,256.597,-806.269,0,0
241689.075,243.576,-788.057,0,0
242990.7,234.36,-770.046,0,0
244292.325,229.379,-754.12,0,0
245593.95,224.803,-742.221,0,0
246895.575,220.045,-730.325,0,0
248197.2,215.829,-718.283,0,0
249498.825,214.871,-706.681,0,0
250800,214.453,-699.519,0,0
252102,209.684,-694.148,0,0
253404,201.703,-684.613,0,0
254705,196.844,-669.56,0,0
256007,197.136,-652.957,0,0
257309,204.755,-638.12,0,0
258610,214.732,-630.143,0,0
259912,224.696,-622.945,0,0
261213,239.372,-622.783,0,0
262515,251.303,-632.884,0,0
263817,252.085,-647.786,0,0
265118,243.987,-660.23,0,0
266420,229.171,-665.916,0,0
267721.55,214.15,-662.731,0,0
269023.175,203.746,-654.384,0,0
270324.8,197.998,-644.538,0,0
271626.425,195.606,-635.321,0,0
272928.05,195.762,-627.664,0,0
274229.675,195.468,-621.421,0,0
275531.3,197.701,-613.746,0,0
276832.925,204.059,-608.236,0,0
278134.55,212.397,-609.47,0,0
279436.175,216.524,-616.597,0,0
280737.8,213.256,-624.769,0,0
282039.425,206.689,-628.72,0,0
283341,198.604,-630.721,0,0
284643,190.202,-629.148,0,0
285944,182.489,-625.572,0,0
287246,176.271,-619.036,0,0
288548,174.7,-611.49,0,0
289849,175.705,-607.867,0,0
291151,174.713,-606.514,0,0
292452,172.048,-604.706,0,0
293754,169.889,-600.763,0,0
295056,170.855,-597.149,0,0
296357,173.035,-597.177,0,0
297659,172.703,-600.114,0,0
298960.525,168.897,-603.434,0,0
300262.15,163.062,-604.839,0,0
301563.775,156.484,-604.728,0,0
302865.4,149.446,-602.753,0,0
304167.025,143.169,-599.22,0,0
305468.65,137.797,-594.648,0,0
306770.275,133.602,-589.538,0,0
308071.9,130.954,-584.28,0,0
309373.525,129.385,-580.686,0,0
310675.15,126.683,-578.146,0,0
311976.775,122.994,-575.081,0,0
313278.4,118.65,-571.138,0,0
314580,114.917,-565.087,0,0
315882,113.675,-558.266,0,0
317183,114.626,-552.877,0,0
318485,115.679,-549.794,0,0
319787,115.573,-547.437,0,0
321088,115.359,-544.837,0,0
322390,115.974,-542.673,0,0
323691,116.415,-542.404,0,0
324993,115.002,-543.227,0,0
326295,111.799,-543.584,0,0
327596,107.598,-542.797,0,0
328898,103.407,-540.656,0,0
330200,99.4477,-538.3,0,0
331501.125,95.2561,-535.646,0,0
332802.75,90.7323,-532.175,0,0
334104.375,86.3635,-527.71,0,0
335406.0,82.5294,-522.241,0,0
336707.625,79.7821,-516.009,0,0
338009.25,78.0204,-509.968,0,0
339310.875,76.7029,-503.643,0,0
340612.5,76.8089,-496.924,0,0
341914.125,78.7319,-491.198,0,0
343215.75,81.2854,-487.536,0,0
344517.375,82.9344,-485.51,0,0
345819.0,83.0874,-483.848,0,0
347121,82.5004,-481.621,0,0
348422,81.8849,-478.827,0,0
349724,81.5865,-475.415,0,0
351025,82.4135,-472.217,0,0
352327,83.7584,-470.416,0,0
353629,83.9281,-469.968,0,0
354930,82.1999,-469.109,0,0
356232,80.1516,-466.717,0,0
357534,78.6565,-463.758,0,0
358835,77.5107,-460.5,0,0
360137,76.8081,-456.918,0,0
361438,76.8183,-453.533,0,0
362740.1,76.9796,-450.398,0,0
364041.725,77.6204,-447.36,0,0
365343.35,79.0673,-445.203,0,0
366644.975,79.7568,-444.907,0,0
367946.6,77.9594,-444.486,0,0
369248.225,75.1226,-441.813,0,0
370549.85,74.4791,-436.976,0,0
371851.475,76.363,-434.025,0,0
373153.1,76.9375,-433.294,0,0
374454.725,75.6314,-432.212,0,0
375756.35,73.8571,-429.716,0,0
377057.975,72.9543,-426.006,0,0
378359.6,73.4296,-422.467,0,0
379661,74.3413,-419.765,0,0
380963,75.174,-417.844,0,0
382264,75.827,-416.346,0,0
383566,75.7786,-415.391,0,0
384868,74.8884,-414.15,0,0
386169,73.5123,-412.239,0,0
387471,72.3072,-409.51,0,0
388773,71.4541,-406.324,0,0
390074,71.1474,-402.571,0,0
391376,71.8542,-398.695,0,0
392677,73.5067,-395.239,0,0
393979,75.8958,-392.723,0,0
395280.7,78.3224,-391.396,0,0
396582.325,80.3069,-391.159,0,0
397883.95,81.4228,-391.624,0,0
399185.575,81.1766,-392.33,0,0
400006.6,80.5264,-392.402,0,0

File: sample_4.csv
Frequency (Hz),Impedance (ohms),Phase (Radians),Temperature (C),Humidity (%)
10000.0,263.944,-11856.9,0,0
11301.625,235.151,-10504.7,0,0
12603.25,213.255,-9424.46,0,0
13904.875,193.983,-8544.96,0,0
15206.5,181.33,-7821.77,0,0
16508.125,183.919,-7205.02,0,0
17809.75,156.854,-6700.35,0,0
19111.375,145.847,-6244.91,0,0
20413.0,141.837,-5845.71,0,0
21714.625,145.958,-5499.35,0,0
23016.25,125.748,-5200.99,0,0
24317.875,116.555,-4916.88,0,0
25619.5,113.08,-4663.81,0,0
26921.1,107.776,-4434.63,0,0
28222.7,119.68,-4228.61,0,0
29524.4,114.143,-4052.38,0,0
30826,99.4282,-3880.83,0,0
32127.6,99.6444,-3721.08,0,0
33429.2,90.7796,-3580.46,0,0
34730.9,85.6974,-3442.4,0,0
36032.5,82.5102,-3314.83,0,0
37334.1,80.2313,-3196.2,0,0
38635.7,77.6168,-3084.63,0,0
39937.4,77.5222,-2979.23,0,0
41239,79.8007,-2884.06,0,0
42540.6,78.8893,-2797.32,0,0
43842.225,74.2267,-2713.68,0,0
45143.85,71.8892,-2632.82,0,0
46445.475,70.8248,-2555.57,0,0
47747.1,70.3875,-2485.88,0,0
49048.725,66.5051,-2416.99,0,0
50350.35,64.9902,-2349.47,0,0
51651.975,64.3776,-2284.7,0,0
52953.6,66.3118,-2222.02,0,0
54255.225,74.1431,-2165.69,0,0
55556.85,72.1616,-2122.48,0,0
56858.475,66.0534,-2069.16,0,0
58160.1,66.7816,-2016.76,0,0
59461.7,71.0848,-1966.09,0,0
60763.3,80.3829,-1928.25,0,0
62065,70.299,-1895.12,0,0
63366.6,64.8191,-1849.51,0,0
64668.2,64.7249,-1806.31,0,0
65969.8,66.4203,-1766.07,0,0
67271.5,70.4025,-1729.86,0,0
68573.1,74.1336,-1700.75,0,0
69874.7,66.6349,-1670.95,0,0
71176.3,65.5908,-1636.94,0,0
72478,59.4525,-1605.7,0,0
73779.6,57.9971,-1568.99,0,0
75081.2,59.9856,-1536.28,0,0
76382.825,62.4741,-1507.42,0,0
77684.45,65.3418,-1479.42,0,0
78986.075,64.3544,-1457.17,0,0
80287.7,61.2537,-1430.47,0,0
81589.325,60.7118,-1404.47,0,0
82890.95,59.5203,-1379.58,0,0
84192.575,58.2157,-1354.9,0,0
85494.2,57.4135,-1330.54,0,0
86795.825,56.6398,-1306.92,0,0
88097.45,55.3047,-1284.37,0,0
89399.075,53.8261,-1260.08,0,0
90700.7,53.7899,-1236.95,0,0
92002.3,54.0194,-1214.09,0,0
93303.9,55.4231,-1193.26,0,0
94605.6,54.0425,-1173.12,0,0
95907.2,53.3597,-1150.65,0,0
97208.8,54.027,-1129.13,0,0
98510.4,55.209,-1107.89,0,0
99812.1,57.7277,-1087.22,0,0
101114,61.633,-1068.53,0,0
102415,60.8292,-1053.83,0,0
103717,57.9137,-1031.67,0,0
105019,61.3676,-1008.04,0,0
106320.175,67.522,-987.808,0,0
107621.8,73.9077,-969.635,0,0
108923.425,81.7328,-952.288,0,0
110225.05,89.6764,-939.053,0,0
111526.675,96.0629,-927.361,0,0
112828.3,101.909,-916.589,0,0
114129.925,106.285,-907.744,0,0
115431.55,109.032,-899.743,0,0
116733.175,109.297,-891.834,0,0
118034.8,107.441,-881.667,0,0
119336.425,108.795,-868.249,0,0
120638.05,113.802,-863.433,0,0
121939.675,106.839,-857.751,0,0
123241,101.628,-845.67,0,0
124543,98.576,-833.247,0,0
125845,96.1484,-820.857,0,0
127146,93.2765,-810.156,0,0
128448,88.2946,-798.438,0,0
129749,81.6649,-784.228,0,0
131051,76.6201,-766.641,0,0
132353,73.8609,-748.05,0,0
133654,72.831,-729.1,0,0
134956,73.3342,-710.083,0,0
136258,75.4155,-691.691,0,0
137559,78.243,-674.159,0,0
138860.775,80.1418,-656.63,0,0
140162.4,83.237,-637.794,0,0
141464.025,88.2702,-618.702,0,0
142765.65,94.2989,-600.67,0,0
144067.275,100.719,-582.538,0,0
145368.9,108.312,-564.05,0,0
146670.525,117.388,-545.446,0,0
147972.15,128.052,-527.304,0,0
149273.775,140.287,-508.968,0,0
150575.4,155.338,-491.246,0,0
151877.025,173.912,-474.979,0,0
153178.65,195.45,-462.533,0,0
154480,216.94,-457.039,0,0
155782,234.247,-453.179,0,0
157084,250.357,-451.256,0,0
158385,264.425,-446.34,0,0
159687,284.509,-443.126,0,0
160988,302.609,-449.353,0,0
162290,309.818,-457.093,0,0
163592,313.968,-456.06,0,0
164893,322.736,-448.253,0,0
166195,339.052,-442.742,0,0
167497,363.752,-440.015,0,0
168798,393.669,-455,0,0
170100,410.636,-484.412,0,0
171401.375,409.909,-522.108,0,0
172703.0,386.382,-549.178,0,0
174004.625,352.498,-556.773,0,0
175306.25,324.504,-546.255,0,0
176607.875,305.572,-525.979,0,0
177909.5,297.8,-502.297,0,0
179211.125,297.533,-481.599,0,0
180512.75,300.175,-462.882,0,0
181814.375,304.084,-446.118,0,0
183116.0,307.398,-429.376,0,0
184417.625,311.297,-409.145,0,0
185719.25,318.634,-386.188,0,0
187021,330.717,-360.745,0,0
188322,347.943,-333.969,0,0
189624,372.196,-306.529,0,0
190926,404.642,-279.646,0,0
192227,446.674,-257.419,0,0
193529,496.089,-242.79,0,0
194831,550.342,-236.213,0,0
196132,609.581,-238.115,0,0
197434,675.502,-249.341,0,0
198735,749.016,-278.987,0,0
200037,820.018,-335.324,0,0
201339,871.063,-415.8,0,0
202640.35,893.161,-507.106,0,0
203941.975,889.356,-590.15,0,0
205243.6,871.913,-666.513,0,0
206545.225,842.256,-734.811,0,0
207846.85,802.558,-795.453,0,0
209148.475,745.026,-844.053,0,0
210450.1,684.123,-865.708,0,0
211751.725,633.896,-872.215,0,0
213053.35,593.236,-869.278,0,0
214354.975,564.765,-861.883,0,0
215656.6,548.376,-860.7,0,0
216958.225,529.782,-867.382,0,0
218259.85,507.321,-874.122,0,0
219561,484.212,-876.661,0,0
220863,463.208,-880.423,0,0
222165,440.018,-883.229,0,0
223466,417.376,-882.572,0,0
224768,395.976,-883.224,0,0
226070,372.047,-884.335,0,0
227371,344.386,-880.49,0,0
228673,316.957,-872.047,0,0
229974,291.958,-857.133,0,0
231276,273.161,-838.706,0,0
232578,259.253,-821.126,0,0
233879,248.403,-803.896,0,0
235180.95,240.351,-787.952,0,0
236482.575,234.006,-773.712,0,0
237784.2,228.538,-759.366,0,0
239085.825,226.518,-746.085,0,0
240387.45,225.459,-736.141,0,0
241689.075,223.832,-728.674,0,0
242990.7,220.875,-722.383,0,0
244292.325,216.317,-716.371,0,0
245593.95,209.898,-709.321,0,0
246895.575,204.004,-699.539,0,0
248197.2,200.758,-688.907,0,0
249498.825,198.733,-680.182,0,0
250800,196.012,-671.943,0,0
252102,192.905,-664.516,0,0
253404,186.928,-655.423,0,0
254705,182.56,-641.666,0,0
256007,180.715,-625.988,0,0
257309,183.49,-608.113,0,0
258610,191.103,-590.993,0,0
259912,204.425,-574.999,0,0
261213,223.532,-564.531,0,0
262515,244.227,-562.094,0,0
263817,264.651,-565.346,0,0
265118,282.669,-575.736,0,0
266420,297.486,-591.981,0,0
267721.55,303.483,-614.619,0,0
269023.175,300.474,-635.543,0,0
270324.8,288.764,-654.079,0,0
271626.425,275.061,-660.88,0,0
272928.05,267.013,-668.178,0,0
274229.675,255.193,-677.031,0,0
275531.3,238.731,-684.422,0,0
276832.925,217.586,-684.785,0,0
278134.55,198.492,-676.066,0,0
279436.175,186.453,-661.483,0,0
280737.8,183.878,-648.314,0,0
282039.425,182.845,-641.211,0,0
283341,181.024,-633.828,0,0
284643,181.945,-630.437,0,0
285944,179.004,-628.418,0,0
287246,173.245,-625.654,0,0
288548,166.343,-616.911,0,0
289849,166.284,-603.24,0,0
291151,175.428,-593.326,0,0
292452,187.455,-592.42,0,0
293754,196.846,-599.276,0,0
295056,198.711,-612.034,0,0
296357,191.304,-623.006,0,0
297659,180.061,-627.651,0,0
298960.525,169.869,-627.394,0,0
300262.15,161.535,-625.785,0,0
301563.775,153.373,-623.704,0,0
302865.4,145.359,-619.725,0,0
304167.025,138.637,-614.797,0,0
305468.65,133.048,-608.999,0,0
306770.275,129.139,-602.923,0,0
308071.9,126.574,-597.791,0,0
309373.525,124.173,-593.762,0,0
310675.15,121.313,-590.093,0,0
311976.775,118.01,-586.415,0,0
313278.4,114.85,-581.848,0,0
314580,112.616,-577.223,0,0
315882,111.298,-572.966,0,0
317183,110.501,-569.778,0,0
318485,109.36,-567.838,0,0
319787,107.084,-566.731,0,0
321088,103.347,-565.959,0,0
322390,97.3878,-564.479,0,0
323691,90.285,-559.841,0,0
324993,85.4906,-552.713,0,0
326295,82.3732,-546.089,0,0
327596,79.8939,-539.402,0,0
328898,78.1337,-532.495,0,0
330200,77.8222,-525.4,0,0
331501.125,79.0381,-519.593,0,0
332802.75,80.115,-515.679,0,0
334104.375,80.0762,-512.601,0,0
335406.0,78.8204,-509.432,0,0
336707.625,77.1017,-505.247,0,0
338009.25,75.4212,-499.872,0,0
339310.875,75.0036,-493.498,0,0
340612.5,76.1398,-487.231,0,0
341914.125,78.8288,-481.352,0,0
343215.75,83.1112,-477.394,0,0
344517.375,87.1134,-476.299,0,0
345819.0,89.1114,-476.667,0,0
347121,89.3014,-477.023,0,0
348422,88.2893,-476.831,0,0
349724,86.4562,-475.784,0,0
351025,84.3187,-473.878,0,0
352327,82.3656,-470.854,0,0
353629,81.1722,-467.048,0,0
354930,81.1577,-463.273,0,0
356232,81.442,-460.787,0,0
357534,81.2273,-458.606,0,0
358835,79.8663,-456.497,0,0
360137,78.2348,-452.767,0,0
361438,78.0284,-448.349,0,0
362740.1,78.6417,-444.419,0,0
364041.725,79.6602,-441.182,0,0
365343.35,79.8391,-438.503,0,0
366644.975,79.6679,-434.527,0,0
367946.6,80.7681,-429.605,0,0
369248.225,83.6359,-424.748,0,0
370549.85,88.2266,-421.264,0,0
371851.475,93.7311,-419.775,0,0
373153.1,98.9428,-421.38,0,0
374454.725,101.186,-425.13,0,0
375756.35,100.786,-427.542,0,0
377057.975,100.194,-428.769,0,0
378359.6,99.1222,-429.826,0,0
379661,97.8262,-430.288,0,0
380963,96.5648,-430.381,0,0
382264,95.2508,-430.021,0,0
383566,95.359,-429.977,0,0
384868,94.2225,-432.51,0,0
386169,89.9001,-434.239,0,0
387471,84.4711,-433.238,0,0
388773,80.0708,-429.521,0,0
390074,78.7755,-425.073,0,0
391376,79.3839,-422.935,0,0
392677,78.5109,-423.489,0,0
393979,74.6134,-423.59,0,0
395280.7,69.7581,-421.117,0,0
396582.325,66.0277,-416.945,0,0
397883.95,63.4256,-412.168,0,0
399185.575,61.6524,-407.353,0,0
400006.6,60.8414,-404.229,0,0