Folder: ML_Dmg_Mehdi_Dataset/Accelerated corrosion test data/2025-10-11_06-00-04 (part 2)

File: sample_3.csv
Frequency (Hz),Impedance (ohms),Phase (Radians),Temperature (C),Humidity (%)
10000.0,249.132,-11794,0,0
11301.625,222.239,-10446.7,0,0
12603.25,201.24,-9375.51,0,0
13904.875,184.581,-8502.55,0,0
15206.5,171.244,-7771.81,0,0
16508.125,160.631,-7177.16,0,0
17809.75,154.913,-6648.13,0,0
19111.375,144.968,-6196.59,0,0
20413.0,158.174,-5797,0,0
21714.625,137.601,-5475.33,0,0
23016.25,127.353,-5169.18,0,0
24317.875,118.258,-4889.75,0,0
25619.5,112.781,-4642.74,0,0
26921.1,107.027,-4412.01,0,0
28222.7,102.6,-4205.19,0,0
29524.4,107.935,-4028.18,0,0
30826,100.809,-3856.29,0,0
32127.6,100.484,-3691.75,0,0
33429.2,99.0884,-3566.66,0,0
34730.9,87.2774,-3429.15,0,0
36032.5,82.7242,-3301.42,0,0
37334.1,79.7406,-3183.53,0,0
38635.7,77.4931,-3073.63,0,0
39937.4,74.9886,-2971.06,0,0
41239,73.816,-2873.97,0,0
42540.6,72.6238,-2784.4,0,0
43842.225,71.1807,-2698.72,0,0
45143.85,70.4821,-2619.3,0,0
46445.475,69.41,-2543.56,0,0
47747.1,69.6326,-2470.91,0,0
49048.725,68.0638,-2405.38,0,0
50350.35,66.1078,-2340.25,0,0
51651.975,65.6568,-2277.46,0,0
52953.6,66.0715,-2217.85,0,0
54255.225,68.9404,-2162.99,0,0
55556.85,66.3039,-2115.46,0,0
56858.475,61.2894,-2062.69,0,0
58160.1,60.776,-2010.7,0,0
59461.7,61.2122,-1961.44,0,0
60763.3,62.5798,-1914.79,0,0
62065,64.6615,-1870.04,0,0
63366.6,68.2897,-1826.48,0,0
64668.2,77.1257,-1784.68,0,0
65969.8,91.5377,-1759.11,0,0
67271.5,75.5458,-1733.94,0,0
68573.1,75.7395,-1696.29,0,0
69874.7,75.4239,-1667.22,0,0
71176.3,70.3917,-1636.71,0,0
72478,68.9656,-1603.99,0,0
73779.6,67.4822,-1575.64,0,0
75081.2,63.8676,-1547.41,0,0
76382.825,60.3261,-1518.23,0,0
77684.45,57.8701,-1489.28,0,0
78986.075,55.5847,-1460.78,0,0
80287.7,54.0532,-1432.77,0,0
81589.325,53.0915,-1405.57,0,0
82890.95,52.5727,-1379.14,0,0
84192.575,52.2632,-1353.55,0,0
85494.2,52.1573,-1328.52,0,0
86795.825,52.2693,-1304.12,0,0
88097.45,52.9443,-1280.23,0,0
89399.075,54.1846,-1256.51,0,0
90700.7,56.4809,-1234.8,0,0
92002.3,58.9567,-1214.11,0,0
93303.9,61.9139,-1195.3,0,0
94605.6,62.7931,-1180.67,0,0
95907.2,57.6928,-1163.04,0,0
97208.8,56.2801,-1141.92,0,0
98510.4,56.0835,-1122.43,0,0
99812.1,55.5209,-1103.49,0,0
101114,55.0943,-1083.77,0,0
102415,56.3017,-1063.36,0,0
103717,60.2342,-1045.61,0,0
105019,63.4989,-1031.55,0,0
106320.175,62.9137,-1017.88,0,0
107621.8,60.4231,-1002.3,0,0
108923.425,58.6417,-984.653,0,0
110225.05,58.7165,-966.064,0,0
111526.675,60.9684,-948.234,0,0
112828.3,63.2056,-932.226,0,0
114129.925,64.7457,-916.33,0,0
115431.55,66.7973,-899.441,0,0
116733.175,70.5597,-882.877,0,0
118034.8,76.3809,-867.103,0,0
119336.425,82.9141,-855.368,0,0
120638.05,88.7788,-848.84,0,0
121939.675,86.201,-840.591,0,0
123241,86.5559,-827.292,0,0
124543,88.0484,-815.975,0,0
125845,89.3683,-805.621,0,0
127146,88.7854,-795.948,0,0
128448,87.0867,-785.089,0,0
129749,85.4975,-772.071,0,0
131051,86.4854,-759.031,0,0
132353,86.0318,-748.019,0,0
133654,85.3949,-736.118,0,0
134956,83.827,-723.624,0,0
136258,82.4643,-710.174,0,0
137559,82.2981,-694.984,0,0
138860.775,83.5533,-681.536,0,0
140162.4,82.6474,-668.12,0,0
141464.025,82.4535,-653.844,0,0
142765.65,81.7701,-637.966,0,0
144067.275,82.1021,-620.86,0,0
145368.9,83.735,-602.837,0,0
146670.525,86.4297,-584.081,0,0
147972.15,90.6862,-564.194,0,0
149273.775,97.2361,-544.074,0,0
150575.4,107.606,-523.703,0,0
151877.025,120.277,-507.016,0,0
153178.65,133.028,-493.242,0,0
154480,143.099,-481.309,0,0
155782,151.066,-465.275,0,0
157084,162.767,-447.799,0,0
158385,179.585,-435.984,0,0
159687,184.205,-422.139,0,0
160988,199.529,-393.443,0,0
162290,225.713,-368.678,0,0
163592,261.36,-348.329,0,0
164893,309.13,-336.845,0,0
166195,361.524,-349.595,0,0
167497,400.104,-382.648,0,0
168798,421.297,-418.136,0,0
170100,421.927,-459.674,0,0
171401.375,406.724,-476.889,0,0
172703.0,400.857,-479.972,0,0
174004.625,409.465,-487.28,0,0
175306.25,413.395,-505.495,0,0
176607.875,407.101,-523.663,0,0
177909.5,386.973,-540.066,0,0
179211.125,364.062,-533.484,0,0
180512.75,358.736,-519.968,0,0
181814.375,363.188,-515.553,0,0
183116.0,356.677,-522.545,0,0
184417.625,341.371,-520.008,0,0
185719.25,328.042,-506.812,0,0
187021,322.585,-483.974,0,0
188322,329.179,-464.668,0,0
189624,334.982,-450.807,0,0
190926,344.691,-436.626,0,0
192227,353.779,-423.452,0,0
193529,364.569,-405.54,0,0
194831,387.578,-387.351,0,0
196132,420.96,-382.912,0,0
197434,442.932,-395.695,0,0
198735,455.792,-400.828,0,0
200037,467.445,-404.66,0,0
201339,472.646,-402.27,0,0
202640.35,490.731,-392.877,0,0
203941.975,520.236,-391.19,0,0
205243.6,549.073,-403.081,0,0
206545.225,563.652,-420.636,0,0
207846.85,580.508,-420.95,0,0
209148.475,611.853,-429.529,0,0
210450.1,644.573,-450.83,0,0
211751.725,671.584,-482.589,0,0
213053.35,692.152,-517.888,0,0
214354.975,706.475,-559.475,0,0
215656.6,715.072,-604.654,0,0
216958.225,711.48,-652.462,0,0
218259.85,697.549,-695.246,0,0
219561,678.511,-732.047,0,0
220863,659.212,-770.175,0,0
222165,628.584,-806.903,0,0
223466,584.678,-833.108,0,0
224768,542.05,-835.708,0,0
226070,520.038,-831.375,0,0
227371,504.18,-840.402,0,0
228673,479.687,-853.398,0,0
229974,450.886,-859.592,0,0
231276,422.951,-861.445,0,0
232578,397.111,-859.63,0,0
233879,372.902,-856.575,0,0
235180.95,349.781,-852.245,0,0
236482.575,326.04,-847.266,0,0
237784.2,301.814,-838.944,0,0
239085.825,277.826,-825.112,0,0
240387.45,260.264,-807.099,0,0
241689.075,246.585,-789.581,0,0
242990.7,238.119,-771.438,0,0
244292.325,233.018,-756.618,0,0
245593.95,228.329,-744.814,0,0
246895.575,223.154,-733.351,0,0
248197.2,218.871,-721.728,0,0
249498.825,217.98,-710.714,0,0
250800,216.561,-704.702,0,0
252102,210.509,-698.897,0,0
253404,202.154,-688.729,0,0
254705,197.125,-673.642,0,0
256007,197.423,-656.817,0,0
257309,205.196,-642.45,0,0
258610,213.9,-634.227,0,0
259912,224.696,-626.521,0,0
261213,239.897,-627.148,0,0
262515,250.089,-638.908,0,0
263817,249.002,-653.147,0,0
265118,239.043,-664.148,0,0
266420,224.594,-667.439,0,0
267721.55,210.771,-663.165,0,0
269023.175,201.455,-654.207,0,0
270324.8,196.238,-645.308,0,0
271626.425,194.233,-635.798,0,0
272928.05,194.364,-629.103,0,0
274229.675,193.39,-621.656,0,0
275531.3,196.695,-613.358,0,0
276832.925,204.231,-608.804,0,0
278134.55,211.833,-610.89,0,0
279436.175,215.44,-617.638,0,0
280737.8,212.989,-625.588,0,0
282039.425,206.334,-630.732,0,0
283341,197.652,-632.573,0,0
284643,188.64,-631.306,0,0
285944,180.473,-626.913,0,0
287246,174.835,-620.038,0,0
288548,173.423,-613.225,0,0
289849,173.235,-609.819,0,0
291151,171.738,-607.543,0,0
292452,168.76,-604.933,0,0
293754,166.983,-599.737,0,0
295056,168.875,-595.778,0,0
296357,171.58,-595.896,0,0
297659,171.562,-598.91,0,0
298960.525,168.12,-602.035,0,0
300262.15,162.771,-603.639,0,0
301563.775,156.437,-603.728,0,0
302865.4,149.7,-601.94,0,0
304167.025,143.564,-598.864,0,0
305468.65,137.99,-594.488,0,0
306770.275,133.883,-589.232,0,0
308071.9,131.588,-584.38,0,0
309373.525,129.715,-581.125,0,0
310675.15,126.88,-578.684,0,0
311976.775,122.933,-575.875,0,0
313278.4,118.294,-571.522,0,0
314580,114.754,-565.45,0,0
315882,113.403,-558.666,0,0
317183,114.245,-553.329,0,0
318485,115.017,-550.231,0,0
319787,114.873,-547.431,0,0
321088,114.954,-544.587,0,0
322390,115.926,-542.452,0,0
323691,116.527,-542.435,0,0
324993,115.133,-543.269,0,0
326295,112.071,-543.822,0,0
327596,107.767,-543.177,0,0
328898,103.323,-541.233,0,0
330200,99.1538,-538.652,0,0
331501.125,94.9926,-535.76,0,0
332802.75,90.6229,-532.216,0,0
334104.375,86.2838,-527.749,0,0
335406.0,82.5116,-522.232,0,0
336707.625,79.7991,-516.221,0,0
338009.25,77.8182,-510.214,0,0
339310.875,76.5441,-503.749,0,0
340612.5,76.7166,-496.994,0,0
341914.125,78.605,-491.162,0,0
343215.75,81.1509,-487.406,0,0
344517.375,83.0112,-485.318,0,0
345819.0,83.3073,-483.723,0,0
347121,82.8486,-481.469,0,0
348422,82.1888,-478.812,0,0
349724,81.7455,-475.359,0,0
351025,82.506,-471.938,0,0
352327,84.2025,-470,0,0
353629,84.4281,-469.663,0,0
354930,82.9157,-468.75,0,0
356232,81.1651,-466.639,0,0
357534,79.5209,-463.929,0,0
358835,78.3756,-460.429,0,0
360137,78.161,-456.95,0,0
361438,78.1474,-454.069,0,0
362740.1,78.0068,-451.181,0,0
364041.725,78.4852,-447.928,0,0
365343.35,80.1638,-445.946,0,0
366644.975,80.4952,-445.826,0,0
367946.6,78.6211,-445.135,0,0
369248.225,76.1474,-442.322,0,0
370549.85,75.8245,-437.879,0,0
371851.475,77.6106,-435.151,0,0
373153.1,77.9701,-434.896,0,0
374454.725,76.2128,-433.792,0,0
375756.35,74.3347,-431.118,0,0
377057.975,73.4885,-427.355,0,0
378359.6,73.8155,-423.836,0,0
379661,74.8236,-421.19,0,0
380963,75.6396,-419.532,0,0
382264,75.8129,-418.08,0,0
383566,75.6117,-416.844,0,0
384868,74.7763,-415.487,0,0
386169,73.4688,-413.492,0,0
387471,72.2994,-410.931,0,0
388773,71.2286,-407.759,0,0
390074,70.7378,-403.877,0,0
391376,71.3143,-399.869,0,0
392677,73.0749,-396.156,0,0
393979,75.5725,-393.69,0,0
395280.7,78.0039,-392.383,0,0
396582.325,79.8987,-392.051,0,0
397883.95,81.0144,-392.497,0,0
399185.575,80.7689,-393.1,0,0
400006.6,80.2388,-393.089,0,0

File: sample_4.csv
Frequency (Hz),Impedance (ohms),Phase (Radians),Temperature (C),Humidity (%)
10000.0,262.273,-11866.6,0,0
11301.625,233.244,-10513.1,0,0
12603.25,211.906,-9431.06,0,0
13904.875,191.988,-8552.17,0,0
15206.5,180.919,-7827.31,0,0
16508.125,183.136,-7212.69,0,0
17809.75,155.878,-6706.52,0,0
19111.375,144.632,-6249.42,0,0
20413.0,140.243,-5849.17,0,0
21714.625,144.92,-5504.5,0,0
23016.25,124.844,-5204.43,0,0
24317.875,115.751,-4919.92,0,0
25619.5,111.834,-4666.77,0,0
26921.1,106.571,-4437.46,0,0
28222.7,120.707,-4233.69,0,0
29524.4,111.647,-4054.88,0,0
30826,97.989,-3883.45,0,0
32127.6,99.1754,-3723.47,0,0
33429.2,89.6275,-3582.75,0,0
34730.9,84.6623,-3444.25,0,0
36032.5,81.4597,-3316.86,0,0
37334.1,79.7325,-3198.1,0,0
38635.7,76.8382,-3086.51,0,0
39937.4,76.8222,-2980.61,0,0
41239,79.7367,-2886.76,0,0
42540.6,78.5933,-2798.43,0,0
43842.225,73.3308,-2714.93,0,0
45143.85,71.1936,-2633.99,0,0
46445.475,69.9554,-2556.87,0,0
47747.1,69.8535,-2487.26,0,0
49048.725,65.9908,-2418.08,0,0
50350.35,64.3585,-2350.58,0,0
51651.975,63.6108,-2285.9,0,0
52953.6,65.3005,-2223.18,0,0
54255.225,73.4851,-2166.75,0,0
55556.85,71.9264,-2123.75,0,0
56858.475,65.5601,-2069.84,0,0
58160.1,66.3686,-2017.53,0,0
59461.7,70.6174,-1967.25,0,0
60763.3,79.4211,-1929.03,0,0
62065,69.7784,-1895.81,0,0
63366.6,64.1029,-1850.63,0,0
64668.2,64.5011,-1807.35,0,0
65969.8,66.4139,-1766.72,0,0
67271.5,70.2761,-1730.58,0,0
68573.1,73.5632,-1701.73,0,0
69874.7,66.1201,-1671.63,0,0
71176.3,64.5336,-1637.39,0,0
72478,59.0432,-1606.09,0,0
73779.6,57.6907,-1569.64,0,0
75081.2,59.6259,-1536.88,0,0
76382.825,62.1213,-1508.02,0,0
77684.45,64.8318,-1480.42,0,0
78986.075,63.7525,-1457.94,0,0
80287.7,60.6803,-1431.06,0,0
81589.325,60.1191,-1405.07,0,0
82890.95,58.8683,-1380.06,0,0
84192.575,57.6772,-1355.18,0,0
85494.2,56.9291,-1330.87,0,0
86795.825,56.166,-1307.34,0,0
88097.45,54.8666,-1284.83,0,0
89399.075,53.3974,-1260.56,0,0
90700.7,53.1596,-1237.44,0,0
92002.3,53.5351,-1214.36,0,0
93303.9,54.7889,-1193.6,0,0
94605.6,53.4436,-1173.27,0,0
95907.2,52.8297,-1150.76,0,0
97208.8,53.6915,-1129.06,0,0
98510.4,55.0514,-1107.6,0,0
99812.1,57.582,-1086.92,0,0
101114,61.8006,-1068.38,0,0
102415,61.1654,-1054.04,0,0
103717,58.1088,-1031.39,0,0
105019,61.89,-1007.76,0,0
106320.175,68.3936,-987.415,0,0
107621.8,75.177,-969.554,0,0
108923.425,83.4763,-952.854,0,0
110225.05,91.648,-940.263,0,0
111526.675,97.7029,-929.526,0,0
112828.3,102.871,-919.615,0,0
114129.925,106.277,-910.971,0,0
115431.55,108.106,-902.778,0,0
116733.175,107.65,-894.43,0,0
118034.8,105.407,-883.644,0,0
119336.425,106.372,-869.661,0,0
120638.05,111.494,-864.467,0,0
121939.675,104.698,-858.174,0,0
123241,99.9438,-845.889,0,0
124543,96.821,-833.347,0,0
125845,94.7017,-821.042,0,0
127146,91.3408,-809.958,0,0
128448,86.5855,-798.231,0,0
129749,80.216,-783.542,0,0
131051,75.4038,-765.883,0,0
132353,72.8043,-747.223,0,0
133654,72.0136,-728.269,0,0
134956,72.6991,-709.39,0,0
136258,74.8035,-690.984,0,0
137559,77.5931,-673.728,0,0
138860.775,79.4751,-656,0,0
140162.4,82.7629,-636.987,0,0
141464.025,87.7618,-618.052,0,0
142765.65,93.7069,-599.778,0,0
144067.275,100.407,-581.475,0,0
145368.9,108.135,-562.903,0,0
146670.525,117.485,-544.25,0,0
147972.15,128.393,-526.253,0,0
149273.775,140.966,-508.13,0,0
150575.4,155.92,-490.468,0,0
151877.025,174.622,-474.205,0,0
153178.65,196.641,-462.147,0,0
154480,218.251,-456.954,0,0
155782,235.052,-453.116,0,0
157084,250.561,-451.292,0,0
158385,265.471,-445.676,0,0
159687,286.062,-443.055,0,0
160988,304.144,-450.778,0,0
162290,310.413,-456.925,0,0
163592,315.351,-456.196,0,0
164893,325.016,-450.204,0,0
166195,339.801,-443.976,0,0
167497,365.701,-442.644,0,0
168798,392.881,-458.993,0,0
170100,409.13,-487.451,0,0
171401.375,406.034,-525.43,0,0
172703.0,381.185,-550.688,0,0
174004.625,348.028,-556.269,0,0
175306.25,320.537,-544.805,0,0
176607.875,302.731,-523.222,0,0
177909.5,296.239,-499.728,0,0
179211.125,295.723,-478.916,0,0
180512.75,299.211,-460.019,0,0
181814.375,303.416,-443.323,0,0
183116.0,306.605,-426.164,0,0
184417.625,311.093,-405.359,0,0
185719.25,319.406,-381.75,0,0
187021,332.52,-356.374,0,0
188322,350.993,-329.832,0,0
189624,376.216,-302.657,0,0
190926,410.308,-276.79,0,0
192227,453.091,-255.668,0,0
193529,503.475,-242.573,0,0
194831,558.528,-238.73,0,0
196132,616.749,-242.93,0,0
197434,681.527,-256.593,0,0
198735,752.403,-288.011,0,0
200037,820.036,-345.802,0,0
201339,867.026,-426.42,0,0
202640.35,884.981,-514.083,0,0
203941.975,882.077,-594.625,0,0
205243.6,862.924,-668.891,0,0
206545.225,833.128,-731.071,0,0
207846.85,797.301,-792.408,0,0
209148.475,739.387,-838.753,0,0
210450.1,681.637,-859.782,0,0
211751.725,632.142,-865.809,0,0
213053.35,594.476,-862.565,0,0
214354.975,567.047,-856.767,0,0
215656.6,552.273,-856.421,0,0
216958.225,532.81,-865.66,0,0
218259.85,510.785,-870.517,0,0
219561,490.058,-875.394,0,0
220863,467.641,-881.309,0,0
222165,443.785,-884.454,0,0
223466,420.497,-885.129,0,0
224768,398.057,-885.75,0,0
226070,372.701,-886.748,0,0
227371,344.393,-882.763,0,0
228673,316.078,-873.124,0,0
229974,291.798,-856.982,0,0
231276,273.521,-838.94,0,0
232578,259.622,-821.199,0,0
233879,248.908,-803.873,0,0
235180.95,240.963,-787.782,0,0
236482.575,234.899,-773.642,0,0
237784.2,229.578,-759.243,0,0
239085.825,227.838,-746.175,0,0
240387.45,226.872,-736.556,0,0
241689.075,225.263,-729.117,0,0
242990.7,222.112,-723.314,0,0
244292.325,217.04,-717.526,0,0
245593.95,210.329,-709.82,0,0
246895.575,204.9,-699.913,0,0
248197.2,202.261,-689.564,0,0
249498.825,199.795,-681.314,0,0
250800,197.065,-673.263,0,0
252102,193.357,-665.7,0,0
253404,187.299,-656.191,0,0
254705,182.801,-642.24,0,0
256007,180.897,-626.196,0,0
257309,184.071,-607.836,0,0
258610,192.903,-590.106,0,0
259912,207.445,-575.131,0,0
261213,226.703,-565.802,0,0
262515,246.97,-563.965,0,0
263817,267.659,-567.54,0,0
265118,286.182,-579.974,0,0
266420,298.678,-597.602,0,0
267721.55,303.071,-619.087,0,0
269023.175,299.755,-639.982,0,0
270324.8,286.566,-656.937,0,0
271626.425,274.159,-663.622,0,0
272928.05,264.914,-671.234,0,0
274229.675,253.075,-679.838,0,0
275531.3,235.596,-686.79,0,0
276832.925,214.353,-685.95,0,0
278134.55,195.383,-676.116,0,0
279436.175,184.476,-660.459,0,0
280737.8,182.948,-648.194,0,0
282039.425,181.599,-641.138,0,0
283341,180.432,-633.68,0,0
284643,181.152,-630.455,0,0
285944,178.245,-629.112,0,0
287246,171.339,-625.395,0,0
288548,165.536,-615.943,0,0
289849,166.452,-602.14,0,0
291151,176.347,-592.762,0,0
292452,188.9,-592.661,0,0
293754,197.853,-601.312,0,0
295056,198.435,-614.192,0,0
296357,190.376,-624.887,0,0
297659,178.577,-628.857,0,0
298960.525,168.517,-628.3,0,0
300262.15,159.965,-626.484,0,0
301563.775,151.732,-623.769,0,0
302865.4,144.355,-619.343,0,0
304167.025,137.951,-614.709,0,0
305468.65,132.26,-609.016,0,0
306770.275,128.087,-602.783,0,0
308071.9,125.846,-597.057,0,0
309373.525,124.213,-593.122,0,0
310675.15,121.517,-590.226,0,0
311976.775,117.876,-586.508,0,0
313278.4,114.748,-582.093,0,0
314580,112.582,-577.251,0,0
315882,111.383,-573.332,0,0
317183,110.388,-570.318,0,0
318485,108.892,-568.416,0,0
319787,106.713,-567.329,0,0
321088,102.695,-566.662,0,0
322390,96.4868,-564.881,0,0
323691,89.3947,-559.935,0,0
324993,84.6964,-552.633,0,0
326295,81.9733,-545.95,0,0
327596,79.4579,-539.47,0,0
328898,77.5711,-532.337,0,0
330200,77.445,-525.206,0,0
331501.125,78.7162,-519.44,0,0
332802.75,79.9752,-515.419,0,0
334104.375,80.0587,-512.537,0,0
335406.0,78.8962,-509.424,0,0
336707.625,76.8614,-505.437,0,0
338009.25,75.2823,-499.732,0,0
339310.875,75.0023,-493.477,0,0
340612.5,76.3151,-487.143,0,0
341914.125,79.2697,-481.405,0,0
343215.75,83.6439,-477.868,0,0
344517.375,87.3644,-476.975,0,0
345819.0,89.1344,-477.424,0,0
347121,89.1384,-477.871,0,0
348422,87.8547,-477.511,0,0
349724,85.9452,-476.366,0,0
351025,83.8552,-474.073,0,0
352327,82.0185,-471.1,0,0
353629,80.8391,-467.291,0,0
354930,81.0253,-463.616,0,0
356232,81.2999,-461.25,0,0
357534,80.7723,-459.183,0,0
358835,79.269,-456.666,0,0
360137,78.0323,-452.832,0,0
361438,77.7834,-448.515,0,0
362740.1,78.4898,-444.483,0,0
364041.725,79.4144,-441.365,0,0
365343.35,79.7199,-438.404,0,0
366644.975,79.8172,-434.558,0,0
367946.6,81.1366,-429.832,0,0
369248.225,84.0614,-425.324,0,0
370549.85,88.6101,-422.099,0,0
371851.475,93.8497,-420.983,0,0
373153.1,98.5746,-422.488,0,0
374454.725,100.909,-425.891,0,0
375756.35,100.542,-428.682,0,0
377057.975,99.3575,-429.933,0,0
378359.6,98.4972,-430.578,0,0
379661,97.1363,-431.399,0,0
380963,95.4112,-431.253,0,0
382264,94.1591,-430.339,0,0
383566,94.6525,-430.386,0,0
384868,93.4775,-433.236,0,0
386169,88.8354,-435.149,0,0
387471,82.8235,-433.808,0,0
388773,78.5941,-429.506,0,0
390074,77.5515,-424.784,0,0
391376,78.3697,-422.688,0,0
392677,77.6326,-423.371,0,0
393979,73.5643,-423.357,0,0
395280.7,68.8558,-420.807,0,0
396582.325,65.1995,-416.469,0,0
397883.95,62.8151,-411.713,0,0
399185.575,61.1282,-406.889,0,0
400006.6,60.4387,-403.764,0,0