Folder: ML_Dmg_Mehdi_Dataset/Accelerated corrosion test data/2025-10-03_06-00-02

Note: README.md
# ML_Dmg_Mehdi_Dataset

File: sample_1.csv
Frequency (Hz),Impedance (ohms),Phase (Radians),Temperature (C),Humidity (%)
10000.0,245.811,-12237.2,0,0
11301.625,220.905,-10839.1,0,0
12603.25,197.305,-9736.55,0,0
13904.875,182.974,-8809.66,0,0
15206.5,182.748,-8078.63,0,0
16508.125,156.062,-7448.5,0,0
17809.75,149.703,-6911.31,0,0
19111.375,136.738,-6441.11,0,0
20413.0,154.887,-5998.4,0,0
21714.625,138.859,-5684.78,0,0
23016.25,123.352,-5375.97,0,0
24317.875,113.01,-5083.07,0,0
25619.5,104.939,-4817.28,0,0
26921.1,113.761,-4569.16,0,0
28222.7,110.696,-4364.09,0,0
29524.4,108.02,-4197.64,0,0
30826,101.053,-4010.78,0,0
32127.6,98.1848,-3851.44,0,0
33429.2,89.3403,-3707.17,0,0
34730.9,82.3127,-3565.06,0,0
36032.5,77.8677,-3433.53,0,0
37334.1,75.2211,-3310.9,0,0
38635.7,72.8562,-3197.01,0,0
39937.4,71.0517,-3090.19,0,0
41239,72.4165,-2990.75,0,0
42540.6,70.7605,-2898.53,0,0
43842.225,67.7857,-2811.17,0,0
45143.85,68.7702,-2729.46,0,0
46445.475,65.6753,-2653.29,0,0
47747.1,64.1971,-2579.25,0,0
49048.725,61.7624,-2508.91,0,0
50350.35,59.9273,-2442.08,0,0
51651.975,59.0491,-2378.25,0,0
52953.6,57.8413,-2317.16,0,0
54255.225,56.9454,-2259.98,0,0
55556.85,56.1044,-2204.35,0,0
56858.475,55.0616,-2151.33,0,0
58160.1,54.768,-2100.55,0,0
59461.7,54.6446,-2052.42,0,0
60763.3,54.6366,-2006.3,0,0
62065,53.2694,-1962.27,0,0
63366.6,52.6605,-1918.62,0,0
64668.2,53.1481,-1876.66,0,0
65969.8,55.4293,-1838.44,0,0
67271.5,53.8222,-1801.82,0,0
68573.1,53.3773,-1766.23,0,0
69874.7,52.3198,-1732.13,0,0
71176.3,50.5435,-1697.41,0,0
72478,48.8564,-1663.72,0,0
73779.6,48.3323,-1630.16,0,0
75081.2,48.6608,-1597.92,0,0
76382.825,49.6364,-1566.65,0,0
77684.45,50.3298,-1537.22,0,0
78986.075,52.0727,-1509.42,0,0
80287.7,51.2593,-1483.09,0,0
81589.325,51.0975,-1455.18,0,0
82890.95,51.3244,-1428.18,0,0
84192.575,53.1337,-1401.74,0,0
85494.2,55.1029,-1377.45,0,0
86795.825,56.1814,-1353.85,0,0
88097.45,56.6299,-1330.75,0,0
89399.075,57.8172,-1306,0,0
90700.7,61.7579,-1282.57,0,0
92002.3,68.1285,-1261.1,0,0
93303.9,75.5743,-1244.07,0,0
94605.6,74.3597,-1236.72,0,0
95907.2,67.7419,-1218.71,0,0
97208.8,64.9279,-1198.08,0,0
98510.4,64.5161,-1177.95,0,0
99812.1,63.6284,-1157.34,0,0
101114,64.03,-1137.83,0,0
102415,63.404,-1115.99,0,0
103717,68.0272,-1094.73,0,0
105019,74.8464,-1076.68,0,0
106320.175,81.3994,-1060.65,0,0
107621.8,87.9619,-1048.25,0,0
108923.425,92.8502,-1037.17,0,0
110225.05,94.2496,-1028.18,0,0
111526.675,95.1013,-1016.18,0,0
112828.3,97.3474,-1006.6,0,0
114129.925,96.7188,-999.194,0,0
115431.55,92.7186,-989.888,0,0
116733.175,87.3285,-977.535,0,0
118034.8,83.3455,-962.776,0,0
119336.425,81.9657,-947.083,0,0
120638.05,82.346,-933.027,0,0
121939.675,81.2673,-920.388,0,0
123241,79.5548,-906.003,0,0
124543,79.3096,-890.756,0,0
125845,79.9752,-876.006,0,0
127146,81.0165,-861.688,0,0
128448,82.8916,-846.601,0,0
129749,86.0092,-832.106,0,0
131051,91.1421,-819.055,0,0
132353,95.3546,-808.331,0,0
133654,98.7831,-798.002,0,0
134956,101.075,-787.814,0,0
136258,104.395,-776.812,0,0
137559,109.164,-767.142,0,0
138860.775,111.568,-761.507,0,0
140162.4,110.965,-753.346,0,0
141464.025,110.463,-742.749,0,0
142765.65,111.524,-731.815,0,0
144067.275,112.354,-720.949,0,0
145368.9,114.648,-709.29,0,0
146670.525,117.782,-698.674,0,0
147972.15,120.76,-689.407,0,0
149273.775,122.357,-680.427,0,0
150575.4,123.531,-671.141,0,0
151877.025,122.767,-659.698,0,0
153178.65,123.08,-645.314,0,0
154480,125.941,-629.128,0,0
155782,133.683,-611.599,0,0
157084,145.631,-597.13,0,0
158385,157.753,-587.663,0,0
159687,168.737,-576.249,0,0
160988,185.78,-566.504,0,0
162290,202.301,-565.019,0,0
163592,216.608,-565.128,0,0
164893,228.717,-567.165,0,0
166195,243.295,-574.523,0,0
167497,248.194,-587.805,0,0
168798,245.988,-597.714,0,0
170100,238.456,-603.482,0,0
171401.375,232.002,-601.812,0,0
172703.0,225.963,-599.66,0,0
174004.625,222.154,-593.482,0,0
175306.25,222.486,-587.624,0,0
176607.875,221.393,-586.164,0,0
177909.5,218.352,-582.914,0,0
179211.125,215.608,-579.64,0,0
180512.75,210.169,-576.857,0,0
181814.375,202.671,-569.77,0,0
183116.0,194.098,-559.838,0,0
184417.625,189.125,-544.615,0,0
185719.25,187.976,-528.694,0,0
187021,189.332,-513.857,0,0
188322,191.485,-499.299,0,0
189624,194.291,-482.765,0,0
190926,200.638,-466.799,0,0
192227,207.569,-451.148,0,0
193529,215.083,-435.354,0,0
194831,225.063,-417.994,0,0
196132,238.033,-400.053,0,0
197434,254.871,-382.068,0,0
198735,274.553,-367.329,0,0
200037,294.768,-351.97,0,0
201339,320.834,-333.761,0,0
202640.35,356.397,-319.985,0,0
203941.975,399.01,-312.91,0,0
205243.6,451.022,-319.713,0,0
206545.225,496.298,-347.357,0,0
207846.85,526.904,-386.467,0,0
209148.475,541.433,-427.545,0,0
210450.1,538.979,-461.845,0,0
211751.725,529.915,-480.978,0,0
213053.35,530.528,-486.246,0,0
214354.975,540.595,-495.804,0,0
215656.6,552.341,-511.821,0,0
216958.225,558.309,-526.061,0,0
218259.85,572.443,-540.465,0,0
219561,586.752,-557.816,0,0
220863,605.728,-582.471,0,0
222165,622.639,-620.089,0,0
223466,628.946,-666.182,0,0
224768,622.446,-715.855,0,0
226070,603.097,-765.154,0,0
227371,570.706,-808.874,0,0
228673,526.82,-840.43,0,0
229974,481.368,-857.915,0,0
231276,437.287,-863.221,0,0
232578,401.283,-859.221,0,0
233879,372.136,-854.222,0,0
235180.95,346.545,-848.685,0,0
236482.575,322.455,-842.506,0,0
237784.2,301.301,-835.706,0,0
239085.825,279.911,-829.225,0,0
240387.45,258.222,-818.963,0,0
241689.075,240.5,-806.623,0,0
242990.7,225.814,-793.831,0,0
244292.325,213.754,-782.117,0,0
245593.95,201.644,-771.383,0,0
246895.575,189.998,-759.819,0,0
248197.2,180.026,-747.174,0,0
249498.825,171.522,-734.782,0,0
250800,164.242,-722.622,0,0
252102,157.699,-710.609,0,0
253404,152.038,-698.272,0,0
254705,147.508,-685.181,0,0
256007,145.226,-672.563,0,0
257309,143.826,-660.544,0,0
258610,143.949,-648.521,0,0
259912,145.964,-637.428,0,0
261213,149.826,-627.923,0,0
262515,154.384,-620.733,0,0
263817,159.446,-614.667,0,0
265118,165.995,-611.172,0,0
266420,172.369,-612.11,0,0
267721.55,175.361,-617.869,0,0
269023.175,170.562,-624.762,0,0
270324.8,160.257,-625.886,0,0
271626.425,150.726,-620.834,0,0
272928.05,144.67,-612.581,0,0
274229.675,141.816,-604.125,0,0
275531.3,141.028,-596.355,0,0
276832.925,141.531,-589.337,0,0
278134.55,143.693,-584.049,0,0
279436.175,146.005,-580.735,0,0
280737.8,147.087,-579.725,0,0
282039.425,146.032,-578.822,0,0
283341,143.531,-577.54,0,0
284643,140.673,-574.676,0,0
285944,137.071,-571.45,0,0
287246,132.873,-566.39,0,0
288548,130.391,-558.038,0,0
289849,132.83,-549.936,0,0
291151,136.054,-546.634,0,0
292452,136.155,-544.362,0,0
293754,135,-539.95,0,0
295056,135.184,-533.889,0,0
296357,137.781,-526.952,0,0
297659,142.684,-521.927,0,0
298960.525,147.956,-518.774,0,0
300262.15,153.422,-516.894,0,0
301563.775,158.854,-515.856,0,0
302865.4,165.021,-516.675,0,0
304167.025,170.532,-519.765,0,0
305468.65,174.066,-524.208,0,0
306770.275,176.961,-528.911,0,0
308071.9,178.445,-535.317,0,0
309373.525,177.656,-542.294,0,0
310675.15,175.234,-548.778,0,0
311976.775,170.788,-555.023,0,0
313278.4,164.35,-559.966,0,0
314580,157.137,-562.966,0,0
315882,150.043,-564.756,0,0
317183,142.155,-566.022,0,0
318485,133.804,-565.051,0,0
319787,126.369,-562.976,0,0
321088,118.964,-559.751,0,0
322390,112.251,-555.211,0,0
323691,107.144,-549.488,0,0
324993,103.924,-543.564,0,0
326295,102.168,-538.66,0,0
327596,100.928,-534.733,0,0
328898,99.8959,-531.929,0,0
330200,98.4891,-529.877,0,0
331501.125,96.407,-528.224,0,0
332802.75,93.47,-526.798,0,0
334104.375,89.9299,-524.802,0,0
335406.0,86.1681,-522.277,0,0
336707.625,82.3997,-519.137,0,0
338009.25,78.8397,-515.463,0,0
339310.875,75.6325,-511.396,0,0
340612.5,72.9115,-507.061,0,0
341914.125,70.688,-502.777,0,0
343215.75,68.6368,-498.81,0,0
344517.375,66.5336,-494.822,0,0
345819.0,64.287,-490.57,0,0
347121,62.4495,-486.024,0,0
348422,60.9379,-481.398,0,0
349724,59.8099,-476.615,0,0
351025,59.1542,-472.068,0,0
352327,58.6868,-467.9,0,0
353629,58.1515,-463.83,0,0
354930,57.7037,-459.56,0,0
356232,57.6447,-455.393,0,0
357534,57.8705,-451.504,0,0
358835,57.9382,-447.876,0,0
360137,58.0302,-444.153,0,0
361438,58.3478,-440.516,0,0
362740.1,58.7086,-437.173,0,0
364041.725,58.9282,-433.698,0,0
365343.35,59.1586,-430.227,0,0
366644.975,59.516,-426.619,0,0
367946.6,59.8908,-422.876,0,0
369248.225,60.6169,-418.383,0,0
370549.85,62.8243,-413.89,0,0
371851.475,65.8158,-410.374,0,0
373153.1,69.1372,-407.84,0,0
374454.725,72.4437,-406.494,0,0
375756.35,74.9848,-406.003,0,0
377057.975,76.9787,-405.515,0,0
378359.6,78.8286,-405.264,0,0
379661,80.367,-405.365,0,0
380963,81.9277,-405.435,0,0
382264,83.5672,-406.699,0,0
383566,83.7733,-408.935,0,0
384868,82.3425,-410.901,0,0
386169,79.7997,-411.837,0,0
387471,76.8023,-411.778,0,0
388773,73.8692,-410.281,0,0
390074,71.9327,-408.182,0,0
391376,70.6651,-406.511,0,0
392677,69.1085,-405.368,0,0
393979,66.7057,-403.952,0,0
395280.7,64.1341,-401.574,0,0
396582.325,61.9982,-398.472,0,0
397883.95,60.4393,-395.058,0,0
399185.575,59.243,-391.58,0,0
400006.6,58.6819,-389.281,0,0

File: sample_2.csv
Frequency (Hz),Impedance (ohms),Phase (Radians),Temperature (C),Humidity (%)
10000.0,226.18,-11387.8,0,0
11301.625,201.619,-10085.2,0,0
12603.25,181.705,-9054.3,0,0
13904.875,184.686,-8211.46,0,0
15206.5,164.942,-7522.39,0,0
16508.125,142.184,-6931.57,0,0
17809.75,131.993,-6425.74,0,0
19111.375,128.102,-5987.67,0,0
20413.0,117.564,-5605.98,0,0
21714.625,127.774,-5276.45,0,0
23016.25,111.535,-4983.16,0,0
24317.875,102.33,-4718.96,0,0
25619.5,96.7509,-4475.97,0,0
26921.1,94.7012,-4257.74,0,0
28222.7,89.396,-4059.28,0,0
29524.4,93.1118,-3876.25,0,0
30826,87.1269,-3722.44,0,0
32127.6,81.7305,-3569.58,0,0
33429.2,79.4404,-3431.45,0,0
34730.9,75.4817,-3301.21,0,0
36032.5,72.8375,-3180.21,0,0
37334.1,70.7686,-3067.14,0,0
38635.7,68.5519,-2962.59,0,0
39937.4,66.7882,-2864.34,0,0
41239,65.493,-2771.38,0,0
42540.6,64.2853,-2685.21,0,0
43842.225,62.8572,-2603.44,0,0
45143.85,61.8059,-2526.44,0,0
46445.475,61.2695,-2454.26,0,0
47747.1,60.7147,-2385.06,0,0
49048.725,60.6242,-2321.17,0,0
50350.35,57.8003,-2259.37,0,0
51651.975,56.683,-2200.51,0,0
52953.6,54.9729,-2143.63,0,0
54255.225,54.1353,-2089.09,0,0
55556.85,53.8777,-2037.23,0,0
56858.475,53.8264,-1987.65,0,0
58160.1,54.1353,-1940.56,0,0
59461.7,54.4699,-1894.86,0,0
60763.3,55.9873,-1852.45,0,0
62065,58.9067,-1814.26,0,0
63366.6,55.9685,-1777.62,0,0
64668.2,52.8509,-1739.71,0,0
65969.8,50.656,-1700.94,0,0
67271.5,51.1134,-1663.51,0,0
68573.1,53.3324,-1629.85,0,0
69874.7,55.7385,-1599.18,0,0
71176.3,52.7449,-1571.2,0,0
72478,47.8545,-1541.14,0,0
73779.6,45.1787,-1508.18,0,0
75081.2,45.1574,-1476.2,0,0
76382.825,46.8958,-1445.94,0,0
77684.45,49.5463,-1417.84,0,0
78986.075,52.8784,-1393.47,0,0
80287.7,51.9388,-1372.18,0,0
81589.325,49.2403,-1347.32,0,0
82890.95,48.0093,-1321.77,0,0
84192.575,48.717,-1296.96,0,0
85494.2,49.3876,-1273.61,0,0
86795.825,50.1582,-1251.65,0,0
88097.45,50.6227,-1230.45,0,0
89399.075,50.9416,-1208.91,0,0
90700.7,51.2913,-1188.77,0,0
92002.3,52.858,-1167.7,0,0
93303.9,55.8121,-1149.15,0,0
94605.6,54.8954,-1132.79,0,0
95907.2,54.1743,-1113.12,0,0
97208.8,57.1502,-1096.31,0,0
98510.4,57.4964,-1082.27,0,0
99812.1,53.1355,-1068.22,0,0
101114,50.1609,-1049.9,0,0
102415,47.3572,-1029.93,0,0
103717,46.0584,-1009.35,0,0
105019,49.3985,-989.116,0,0
106320.175,54.1776,-972.054,0,0
107621.8,57.5079,-960.128,0,0
108923.425,56.2449,-948.342,0,0
110225.05,52.9111,-933.161,0,0
111526.675,51.6908,-915.57,0,0
112828.3,51.8752,-898.376,0,0
114129.925,53.4751,-881.123,0,0
115431.55,55.8865,-864.918,0,0
116733.175,59.0244,-849.243,0,0
118034.8,62.8569,-835.041,0,0
119336.425,66.6819,-822.187,0,0
120638.05,69.6774,-811.938,0,0
121939.675,69.1565,-800.774,0,0
123241,68.8937,-788.012,0,0
124543,68.799,-774.96,0,0
125845,68.5765,-760.789,0,0
127146,69.5362,-745.611,0,0
128448,72.3524,-730.724,0,0
129749,75.7182,-717.299,0,0
131051,78.8443,-705.075,0,0
132353,80.8019,-693.405,0,0
133654,81.8009,-680.761,0,0
134956,82.9825,-667.246,0,0
136258,84.4726,-653.051,0,0
137559,87.0274,-638.225,0,0
138860.775,89.3569,-623.559,0,0
140162.4,91.7318,-607.218,0,0
141464.025,96.6571,-588.762,0,0
142765.65,105.195,-570.997,0,0
144067.275,114.743,-555.437,0,0
145368.9,125.013,-539.952,0,0
146670.525,136.391,-524.627,0,0
147972.15,151.134,-508.554,0,0
149273.775,171.039,-493.206,0,0
150575.4,198.401,-486.696,0,0
151877.025,223.628,-493.276,0,0
153178.65,237.505,-508.372,0,0
154480,239.555,-519.898,0,0
155782,237.898,-525.612,0,0
157084,234.745,-527.867,0,0
158385,230.796,-526.49,0,0
159687,226.8,-520.747,0,0
160988,228.414,-512.888,0,0
162290,236.97,-509.494,0,0
163592,235.132,-519.186,0,0
164893,220.856,-519.133,0,0
166195,204.866,-507.667,0,0
167497,196.828,-488.636,0,0
168798,191.821,-467.053,0,0
170100,193.555,-445.179,0,0
171401.375,196.429,-423.247,0,0
172703.0,204.272,-399.259,0,0
174004.625,216.031,-376.003,0,0
175306.25,233.406,-352.522,0,0
176607.875,255.27,-333.836,0,0
177909.5,283.795,-321.546,0,0
179211.125,303.941,-319.419,0,0
180512.75,316.327,-319.979,0,0
181814.375,320.135,-306.762,0,0
183116.0,333.778,-283.635,0,0
184417.625,357.963,-259.954,0,0
185719.25,392.676,-239.448,0,0
187021,430.731,-230.479,0,0
188322,471.479,-221.815,0,0
189624,511.234,-218.384,0,0
190926,554.487,-213.31,0,0
192227,613.804,-213.268,0,0
193529,682.718,-231.134,0,0
194831,745.188,-272.881,0,0
196132,798.546,-328.013,0,0
197434,840.789,-391.37,0,0
198735,870.797,-465.098,0,0
200037,880.352,-549.34,0,0
201339,876.243,-631.602,0,0
202640.35,846.11,-713.968,0,0
203941.975,793.795,-773.189,0,0
205243.6,746.852,-812.631,0,0
206545.225,693.122,-846.283,0,0
207846.85,643.754,-861.284,0,0
209148.475,604.805,-871.103,0,0
210450.1,565.307,-885.728,0,0
211751.725,517.802,-891.668,0,0
213053.35,476.357,-882.557,0,0
214354.975,443.272,-869.255,0,0
215656.6,417.3,-855.058,0,0
216958.225,396.253,-839.35,0,0
218259.85,380.944,-823.678,0,0
219561,370.305,-809.866,0,0
220863,362.183,-799.203,0,0
222165,356.38,-788.211,0,0
223466,354.799,-781.604,0,0
224768,351.755,-779.402,0,0
226070,347.918,-777.217,0,0
227371,345.941,-777.238,0,0
228673,343.878,-780.968,0,0
229974,337.738,-789.732,0,0
231276,325.686,-797.854,0,0
232578,309.793,-802.533,0,0
233879,293.284,-803.747,0,0
235180.95,277.07,-803.463,0,0
236482.575,259.86,-800.976,0,0
237784.2,242.817,-796.101,0,0
239085.825,227.256,-788.194,0,0
240387.45,213.235,-779.022,0,0
241689.075,201.697,-768.416,0,0
242990.7,192.703,-758.33,0,0
244292.325,185.485,-750.041,0,0
245593.95,177.442,-743.928,0,0
246895.575,166.539,-739.218,0,0
248197.2,152.504,-729.766,0,0
249498.825,140.157,-716.851,0,0
250800,130.435,-701.012,0,0
252102,124.352,-684.348,0,0
253404,121.184,-667.851,0,0
254705,119.951,-652.297,0,0
256007,120.784,-636.693,0,0
257309,124.311,-622.174,0,0
258610,129.894,-609.749,0,0
259912,136.391,-598.946,0,0
261213,144.526,-590.348,0,0
262515,153.326,-584.711,0,0
263817,161.541,-581.258,0,0
265118,169.06,-581.302,0,0
266420,173.037,-582.522,0,0
267721.55,175.965,-582.682,0,0
269023.175,177.124,-583.91,0,0
270324.8,175.835,-582.038,0,0
271626.425,177.631,-576.689,0,0
272928.05,183.187,-572.387,0,0
274229.675,192.955,-569.555,0,0
275531.3,206.668,-574.928,0,0
276832.925,214.906,-590.649,0,0
278134.55,211.194,-608.112,0,0
279436.175,200.965,-619.593,0,0
280737.8,189.504,-626.729,0,0
282039.425,176.598,-631.367,0,0
283341,161.146,-631.877,0,0
284643,149,-626.535,0,0
285944,137.05,-622.796,0,0
287246,123.449,-613.372,0,0
288548,114.163,-596.739,0,0
289849,115.296,-577.112,0,0
291151,127.252,-563.906,0,0
292452,140.944,-562.564,0,0
293754,148.329,-570.376,0,0
295056,145.214,-574.705,0,0
296357,149.442,-574.833,0,0
297659,149.29,-586.566,0,0
298960.525,139.224,-592.504,0,0
300262.15,129.925,-593.449,0,0
301563.775,121.33,-590.92,0,0
302865.4,116.597,-587.402,0,0
304167.025,112.555,-587.311,0,0
305468.65,105.35,-587.576,0,0
306770.275,96.3117,-585.041,0,0
308071.9,88.5285,-579.863,0,0
309373.525,82.0934,-574.15,0,0
310675.15,76.5604,-567.743,0,0
311976.775,71.9907,-560.986,0,0
313278.4,68.605,-554.352,0,0
314580,65.6886,-548.089,0,0
315882,63.0459,-541.918,0,0
317183,60.9443,-535.375,0,0
318485,59.5724,-529.053,0,0
319787,58.5797,-523.384,0,0
321088,57.536,-517.88,0,0
322390,56.6137,-512.345,0,0
323691,55.8167,-506.563,0,0
324993,55.727,-499.919,0,0
326295,57.7852,-493.544,0,0
327596,60.9446,-489.51,0,0
328898,63.1255,-487.04,0,0
330200,64.8269,-485.162,0,0
331501.125,65.8161,-484.358,0,0
332802.75,65.287,-484.068,0,0
334104.375,63.1085,-482.857,0,0
335406.0,60.8124,-480.348,0,0
336707.625,58.6141,-477.185,0,0
338009.25,56.8696,-473.374,0,0
339310.875,55.6305,-469.294,0,0
340612.5,54.6803,-465.122,0,0
341914.125,54.0959,-460.883,0,0
343215.75,53.7481,-456.532,0,0
344517.375,54.0053,-452.107,0,0
345819.0,54.703,-447.821,0,0
347121,55.7757,-443.932,0,0
348422,57.188,-440.377,0,0
349724,58.849,-437.122,0,0
351025,60.6866,-434.6,0,0
352327,62.0599,-432.629,0,0
353629,63.1614,-430.472,0,0
354930,64.4627,-428.348,0,0
356232,65.7914,-426.567,0,0
357534,67.2461,-424.824,0,0
358835,68.9701,-423.519,0,0
360137,70.7158,-423.302,0,0
361438,71.3666,-423.582,0,0
362740.1,71.2831,-423.63,0,0
364041.725,70.8649,-423.502,0,0
365343.35,69.9539,-423.121,0,0
366644.975,68.8774,-422.098,0,0
367946.6,68.3531,-420.684,0,0
369248.225,68.3257,-419.667,0,0
370549.85,67.8264,-419.565,0,0
371851.475,66.4946,-418.928,0,0
373153.1,65.3356,-417.925,0,0
374454.725,64.0977,-417.132,0,0
375756.35,62.4767,-416.199,0,0
377057.975,60.8396,-414.824,0,0
378359.6,59.3156,-413.802,0,0
379661,56.4314,-412.667,0,0
380963,53.8832,-409.094,0,0
382264,53.6768,-406.272,0,0
383566,52.5865,-404.881,0,0
384868,50.5788,-402.977,0,0
386169,48.6441,-400.293,0,0
387471,46.8813,-397.115,0,0
388773,45.7163,-393.533,0,0
390074,45.4035,-389.955,0,0
391376,45.6609,-387.23,0,0
392677,45.1448,-385.542,0,0
393979,43.4745,-383.198,0,0
395280.7,41.8885,-379.686,0,0
396582.325,41.1549,-375.622,0,0
397883.95,41.1082,-371.577,0,0
399185.575,41.6269,-367.924,0,0
400006.6,42.0564,-365.746,0,0