Folder: ML_Dmg_Mehdi_Dataset/Accelerated corrosion test data/2025-10-13_18-00-03 (part 4)

File: sample_8.csv
Frequency (Hz),Impedance (ohms),Phase (Radians),Temperature (C),Humidity (%)
10000.0,315.597,-10916.5,0,0
11301.625,279.54,-9674.53,0,0
12603.25,257.198,-8688.81,0,0
13904.875,227.762,-7891.11,0,0
15206.5,207.989,-7221.05,0,0
16508.125,191.51,-6657.83,0,0
17809.75,178.065,-6174.34,0,0
19111.375,169.5,-5754.39,0,0
20413.0,162.536,-5393.51,0,0
21714.625,151.582,-5075.17,0,0
23016.25,145.782,-4794.14,0,0
24317.875,134.166,-4538.46,0,0
25619.5,126.847,-4307,0,0
26921.1,121.942,-4096.54,0,0
28222.7,118.905,-3907.82,0,0
29524.4,115.128,-3736.16,0,0
30826,110.657,-3579.17,0,0
32127.6,106.665,-3431.91,0,0
33429.2,106.146,-3295.97,0,0
34730.9,106.505,-3171.89,0,0
36032.5,109.274,-3060.62,0,0
37334.1,106.585,-2961.29,0,0
38635.7,97.2944,-2865.31,0,0
39937.4,88.995,-2769.52,0,0
41239,86.5142,-2679.56,0,0
42540.6,83.323,-2595.03,0,0
43842.225,82.1809,-2517.61,0,0
45143.85,78.5963,-2443.35,0,0
46445.475,75.754,-2372.74,0,0
47747.1,73.7745,-2305.79,0,0
49048.725,71.8303,-2242.65,0,0
50350.35,69.8135,-2181.95,0,0
51651.975,68.8423,-2124.2,0,0
52953.6,68.3042,-2069.75,0,0
54255.225,67.2766,-2020.03,0,0
55556.85,64.0883,-1970.74,0,0
56858.475,62.0084,-1922.08,0,0
58160.1,61.043,-1875.82,0,0
59461.7,60.4159,-1832.15,0,0
60763.3,59.1319,-1789.67,0,0
62065,58.6804,-1748.87,0,0
63366.6,58.8454,-1709.5,0,0
64668.2,59.5967,-1673.02,0,0
65969.8,58.6165,-1638.64,0,0
67271.5,56.6226,-1604.05,0,0
68573.1,55.6828,-1570.25,0,0
69874.7,55.4595,-1537.17,0,0
71176.3,55.5149,-1505.83,0,0
72478,55.7395,-1476.14,0,0
73779.6,54.9209,-1447.29,0,0
75081.2,54.0921,-1418.93,0,0
76382.825,53.8382,-1391.08,0,0
77684.45,53.5278,-1364.45,0,0
78986.075,52.89,-1338.25,0,0
80287.7,52.4369,-1312.18,0,0
81589.325,52.5378,-1286.6,0,0
82890.95,53.4698,-1261.71,0,0
84192.575,54.623,-1237.88,0,0
85494.2,55.7923,-1216.44,0,0
86795.825,55.1268,-1193.37,0,0
88097.45,55.9233,-1170.91,0,0
89399.075,56.8626,-1148.78,0,0
90700.7,58.6938,-1126.4,0,0
92002.3,63.0113,-1105.46,0,0
93303.9,67.0496,-1087.53,0,0
94605.6,66.8696,-1070.33,0,0
95907.2,68.5625,-1050.67,0,0
97208.8,72.3198,-1031.71,0,0
98510.4,77.088,-1014.65,0,0
99812.1,81.6942,-1000.67,0,0
101114,85.0591,-987.887,0,0
102415,86.4913,-976.162,0,0
103717,85.5456,-964.198,0,0
105019,84.9678,-950.511,0,0
106320.175,84.433,-936.271,0,0
107621.8,84.6157,-922.553,0,0
108923.425,84.0245,-908.549,0,0
110225.05,85.097,-894.484,0,0
111526.675,85.6597,-881.653,0,0
112828.3,86.131,-869.326,0,0
114129.925,86.0086,-857.505,0,0
115431.55,85.3316,-845.489,0,0
116733.175,83.4411,-833.028,0,0
118034.8,82.874,-819.467,0,0
119336.425,82.1507,-806.858,0,0
120638.05,80.7872,-793.617,0,0
121939.675,80.0631,-779.928,0,0
123241,79.7706,-766.287,0,0
124543,79.429,-752.159,0,0
125845,79.9561,-738.162,0,0
127146,81.1026,-724.35,0,0
128448,82.2838,-710.962,0,0
129749,83.4432,-698.101,0,0
131051,84.4259,-684.551,0,0
132353,85.782,-671.527,0,0
133654,86.8046,-658.423,0,0
134956,88.2966,-644.505,0,0
136258,91.2744,-631.528,0,0
137559,91.762,-620.062,0,0
138860.775,91.021,-604.995,0,0
140162.4,92.812,-588.853,0,0
141464.025,95.5665,-572.778,0,0
142765.65,98.6872,-555.967,0,0
144067.275,103.445,-538.13,0,0
145368.9,110.468,-519.488,0,0
146670.525,120.359,-502.332,0,0
147972.15,130.51,-486.962,0,0
149273.775,142.434,-468.596,0,0
150575.4,160.829,-452.337,0,0
151877.025,185.149,-445.63,0,0
153178.65,200.459,-448.107,0,0
154480,207.07,-448.799,0,0
155782,218.095,-441.514,0,0
157084,223.843,-449.319,0,0
158385,221.4,-438.961,0,0
159687,234.256,-431.021,0,0
160988,234.605,-429.941,0,0
162290,242.061,-416.039,0,0
163592,255.196,-411.955,0,0
164893,264.189,-412.684,0,0
166195,264.962,-419.066,0,0
167497,254.584,-412.546,0,0
168798,250.688,-398.025,0,0
170100,252.163,-379.709,0,0
171401.375,254.394,-361.707,0,0
172703.0,265.358,-337.619,0,0
174004.625,281.428,-322.158,0,0
175306.25,287.613,-307.724,0,0
176607.875,300.486,-279.692,0,0
177909.5,323.044,-254.498,0,0
179211.125,354.105,-228.882,0,0
180512.75,397.552,-211.293,0,0
181814.375,442.238,-206.942,0,0
183116.0,484.387,-215.986,0,0
184417.625,511.914,-226.778,0,0
185719.25,540.306,-228.741,0,0
187021,575.723,-233.666,0,0
188322,612.768,-241.268,0,0
189624,648.772,-258.535,0,0
190926,682.103,-267.162,0,0
192227,729.291,-286.128,0,0
193529,779.099,-302.885,0,0
194831,850.197,-350.739,0,0
196132,905.201,-426.579,0,0
197434,929.787,-532.326,0,0
198735,911.474,-626.632,0,0
200037,881.95,-715.516,0,0
201339,822.134,-783.155,0,0
202640.35,747.063,-833.872,0,0
203941.975,677.956,-841.092,0,0
205243.6,623.868,-842.676,0,0
206545.225,570.989,-825.103,0,0
207846.85,553.503,-796.685,0,0
209148.475,545.532,-789.683,0,0
210450.1,536.581,-782.966,0,0
211751.725,535.229,-780.581,0,0
213053.35,535.496,-789.314,0,0
214354.975,529.716,-804.577,0,0
215656.6,516.425,-822.287,0,0
216958.225,494.971,-836.123,0,0
218259.85,471.74,-844.618,0,0
219561,448.672,-848.014,0,0
220863,425.672,-848.12,0,0
222165,407.161,-841.938,0,0
223466,394.648,-837.531,0,0
224768,386.098,-836.212,0,0
226070,376.953,-843.089,0,0
227371,358.772,-850.94,0,0
228673,336.471,-852.815,0,0
229974,316.478,-852.348,0,0
231276,293.218,-851.057,0,0
232578,269.448,-844.735,0,0
233879,245.834,-834.212,0,0
235180.95,225.08,-817.861,0,0
236482.575,210.498,-798.372,0,0
237784.2,201.485,-779.9,0,0
239085.825,196.954,-762.777,0,0
240387.45,195.412,-751.25,0,0
241689.075,190.979,-743.232,0,0
242990.7,183.55,-733.789,0,0
244292.325,177.802,-721.356,0,0
245593.95,174.761,-710.099,0,0
246895.575,172.385,-699.439,0,0
248197.2,169.943,-690.359,0,0
249498.825,166.35,-680.008,0,0
250800,165.072,-667.261,0,0
252102,168.755,-655.766,0,0
253404,173.504,-649.873,0,0
254705,173.798,-645.769,0,0
256007,172.974,-639.391,0,0
257309,172.772,-631.469,0,0
258610,175.337,-622.258,0,0
259912,180.979,-614.618,0,0
261213,187.487,-610.309,0,0
262515,193.405,-608.548,0,0
263817,196.506,-606.918,0,0
265118,199.836,-601.911,0,0
266420,209.417,-595.457,0,0
267721.55,226.793,-595.067,0,0
269023.175,245.235,-608.007,0,0
270324.8,254.358,-631.006,0,0
271626.425,251.024,-658.404,0,0
272928.05,234.413,-681.609,0,0
274229.675,208.491,-695.118,0,0
275531.3,181.732,-694.625,0,0
276832.925,162.121,-686.506,0,0
278134.55,147.902,-676.484,0,0
279436.175,136.968,-665.304,0,0
280737.8,131.34,-653.481,0,0
282039.425,129.215,-644.518,0,0
283341,127.503,-639.307,0,0
284643,123.858,-634.111,0,0
285944,122.355,-627.134,0,0
287246,124.996,-623.901,0,0
288548,124.223,-627.842,0,0
289849,116.059,-630.437,0,0
291151,106.363,-627.754,0,0
292452,97.9757,-623.108,0,0
293754,90.5195,-616.866,0,0
295056,84.0034,-609.455,0,0
296357,79.5026,-601.309,0,0
297659,75.8261,-593.849,0,0
298960.525,72.7856,-585.89,0,0
300262.15,70.9729,-577.784,0,0
301563.775,70.7114,-570.04,0,0
302865.4,71.6149,-563.512,0,0
304167.025,72.8661,-558.474,0,0
305468.65,73.8757,-554.363,0,0
306770.275,74.7548,-551.24,0,0
308071.9,75.165,-548.849,0,0
309373.525,74.4747,-547.563,0,0
310675.15,72.4533,-545.396,0,0
311976.775,70.4871,-542.775,0,0
313278.4,68.2923,-540.036,0,0
314580,65.7556,-536.797,0,0
315882,63.3917,-532.902,0,0
317183,61.7399,-528.601,0,0
318485,60.5668,-524.578,0,0
319787,59.9416,-520.925,0,0
321088,59.1281,-518.141,0,0
322390,57.7626,-515.539,0,0
323691,55.9824,-512.84,0,0
324993,53.5557,-509.871,0,0
326295,51.1676,-506.055,0,0
327596,49.3802,-501.867,0,0
328898,47.8535,-497.658,0,0
330200,46.5345,-493.568,0,0
331501.125,45.368,-489.376,0,0
332802.75,44.387,-485.059,0,0
334104.375,43.8464,-480.672,0,0
335406.0,43.731,-476.696,0,0
336707.625,43.6371,-473.082,0,0
338009.25,43.534,-469.778,0,0
339310.875,43.1174,-466.706,0,0
340612.5,42.424,-463.578,0,0
341914.125,41.5147,-460.217,0,0
343215.75,40.8286,-456.552,0,0
344517.375,40.2843,-452.775,0,0
345819.0,39.9363,-448.861,0,0
347121,39.9955,-444.859,0,0
348422,40.352,-441.152,0,0
349724,40.8599,-437.565,0,0
351025,41.5903,-434.243,0,0
352327,42.3471,-431.318,0,0
353629,42.9718,-428.577,0,0
354930,43.5302,-425.995,0,0
356232,43.9608,-423.486,0,0
357534,44.3229,-421.053,0,0
358835,44.6333,-418.568,0,0
360137,44.9452,-416.201,0,0
361438,45.2064,-413.806,0,0
362740.1,45.4186,-411.408,0,0
364041.725,45.6488,-408.952,0,0
365343.35,46.0745,-406.448,0,0
366644.975,46.5554,-404.198,0,0
367946.6,46.9756,-402.011,0,0
369248.225,47.4462,-399.675,0,0
370549.85,48.4281,-397.531,0,0
371851.475,49.3203,-396.247,0,0
373153.1,49.6192,-395.19,0,0
374454.725,49.2712,-394.051,0,0
375756.35,48.6529,-392.294,0,0
377057.975,48.5854,-390.159,0,0
378359.6,48.6106,-388.751,0,0
379661,47.8394,-387.116,0,0
380963,47.7326,-384.607,0,0
382264,48.2322,-383.351,0,0
383566,47.3962,-382.528,0,0
384868,45.9062,-380.824,0,0
386169,44.5093,-378.405,0,0
387471,43.507,-375.51,0,0
388773,42.9644,-372.369,0,0
390074,42.9484,-369.386,0,0
391376,43.0579,-366.766,0,0
392677,42.9862,-364.327,0,0
393979,42.8054,-361.688,0,0
395280.7,42.7447,-358.865,0,0
396582.325,43.0501,-356.034,0,0
397883.95,43.4293,-353.403,0,0
399185.575,43.7932,-350.874,0,0
400006.6,44.0078,-349.364,0,0