Folder: ML_Dmg_Mehdi_Dataset/Accelerated corrosion test data/2025-10-15_11-00-19 (part 4)

File: sample_8.csv
Frequency (Hz),Impedance (ohms),Phase (Radians),Temperature (C),Humidity (%)
10000.0,311.206,-10979.2,0,0
11301.625,275.587,-9730.24,0,0
12603.25,253.218,-8737.64,0,0
13904.875,224.997,-7936.24,0,0
15206.5,204.518,-7261.64,0,0
16508.125,188.783,-6694.95,0,0
17809.75,174.934,-6207.81,0,0
19111.375,167.418,-5785.05,0,0
20413.0,160.364,-5423.37,0,0
21714.625,149.806,-5103.27,0,0
23016.25,144.238,-4820.43,0,0
24317.875,132.416,-4563.27,0,0
25619.5,125.657,-4330.13,0,0
26921.1,120.375,-4118.94,0,0
28222.7,117.252,-3928.58,0,0
29524.4,113.614,-3756.44,0,0
30826,109.594,-3598.76,0,0
32127.6,105.546,-3450.14,0,0
33429.2,105.019,-3313.23,0,0
34730.9,105.941,-3188.79,0,0
36032.5,108.92,-3077.57,0,0
37334.1,105.874,-2977.61,0,0
38635.7,96.2332,-2881.13,0,0
39937.4,88.4059,-2784.59,0,0
41239,85.6238,-2693.81,0,0
42540.6,82.4328,-2609.06,0,0
43842.225,81.7144,-2531.2,0,0
45143.85,77.8287,-2456.73,0,0
46445.475,74.8847,-2385.59,0,0
47747.1,72.9701,-2318.02,0,0
49048.725,70.8853,-2254.75,0,0
50350.35,69.0088,-2193.75,0,0
51651.975,68.1232,-2135.45,0,0
52953.6,67.6026,-2080.88,0,0
54255.225,66.5484,-2030.82,0,0
55556.85,63.4422,-1981.38,0,0
56858.475,61.3684,-1932.43,0,0
58160.1,60.3258,-1885.89,0,0
59461.7,59.6898,-1841.95,0,0
60763.3,58.3678,-1799.26,0,0
62065,58.0337,-1758.37,0,0
63366.6,58.1334,-1718.69,0,0
64668.2,58.8053,-1682.05,0,0
65969.8,58.0839,-1647.2,0,0
67271.5,55.9476,-1612.75,0,0
68573.1,55.0638,-1578.77,0,0
69874.7,54.8621,-1545.55,0,0
71176.3,54.7233,-1513.98,0,0
72478,54.9644,-1484.16,0,0
73779.6,54.2735,-1455.12,0,0
75081.2,53.4051,-1426.56,0,0
76382.825,53.1305,-1398.59,0,0
77684.45,52.8338,-1371.78,0,0
78986.075,52.1511,-1345.48,0,0
80287.7,51.7478,-1319.3,0,0
81589.325,51.7737,-1293.51,0,0
82890.95,52.6491,-1268.59,0,0
84192.575,53.8908,-1244.66,0,0
85494.2,54.8441,-1222.93,0,0
86795.825,54.2514,-1199.89,0,0
88097.45,55.0686,-1177.34,0,0
89399.075,55.7435,-1155.05,0,0
90700.7,57.655,-1132.38,0,0
92002.3,61.846,-1111.27,0,0
93303.9,65.682,-1093.35,0,0
94605.6,65.5871,-1075.56,0,0
95907.2,67.4643,-1055.76,0,0
97208.8,71.151,-1036.41,0,0
98510.4,76.0725,-1018.93,0,0
99812.1,80.9755,-1004.58,0,0
101114,85.0256,-991.412,0,0
102415,87.0189,-980.157,0,0
103717,86.1853,-968.612,0,0
105019,85.3819,-955.325,0,0
106320.175,84.5347,-940.797,0,0
107621.8,84.7899,-927,0,0
108923.425,84.2407,-912.695,0,0
110225.05,85.4865,-898.638,0,0
111526.675,86.1474,-885.683,0,0
112828.3,86.8297,-873.433,0,0
114129.925,86.7215,-861.685,0,0
115431.55,86.2733,-849.484,0,0
116733.175,84.5762,-837.318,0,0
118034.8,84.0667,-823.9,0,0
119336.425,83.5277,-811.374,0,0
120638.05,82.1693,-798.47,0,0
121939.675,81.4443,-785.007,0,0
123241,80.8961,-771.659,0,0
124543,80.4751,-757.741,0,0
125845,80.5584,-743.954,0,0
127146,81.2018,-729.914,0,0
128448,82.2594,-716.361,0,0
129749,83.3647,-703.07,0,0
131051,84.5145,-689.49,0,0
132353,85.9566,-676.601,0,0
133654,86.7071,-663.725,0,0
134956,87.9339,-649.605,0,0
136258,90.9931,-636.262,0,0
137559,91.583,-624.973,0,0
138860.775,90.652,-609.907,0,0
140162.4,92.6329,-593.7,0,0
141464.025,95.3584,-577.834,0,0
142765.65,98.2657,-561.096,0,0
144067.275,102.875,-543.465,0,0
145368.9,109.315,-524.948,0,0
146670.525,118.531,-507.269,0,0
147972.15,128.651,-491.543,0,0
149273.775,140.209,-472.686,0,0
150575.4,158.611,-455.349,0,0
151877.025,184.036,-447.131,0,0
153178.65,201.168,-450.134,0,0
154480,208.794,-452.781,0,0
155782,219.082,-446.044,0,0
157084,225.58,-455.426,0,0
158385,220.653,-446.647,0,0
159687,232.024,-437.61,0,0
160988,231.781,-437.003,0,0
162290,236.987,-422.036,0,0
163592,250.716,-415.696,0,0
164893,260.088,-414.713,0,0
166195,263.648,-420.813,0,0
167497,253.168,-416.399,0,0
168798,249.286,-402.381,0,0
170100,249.91,-384.251,0,0
171401.375,252.103,-366.766,0,0
172703.0,261.719,-342.187,0,0
174004.625,278.007,-325.982,0,0
175306.25,285.706,-313.978,0,0
176607.875,295.154,-287.29,0,0
177909.5,315.181,-261.427,0,0
179211.125,343.742,-235.17,0,0
180512.75,384.232,-213.807,0,0
181814.375,429.764,-206.436,0,0
183116.0,473.221,-212.492,0,0
184417.625,502.299,-223.323,0,0
185719.25,531.197,-225.159,0,0
187021,565.696,-229.611,0,0
188322,600.311,-234.441,0,0
189624,637.728,-248.975,0,0
190926,671.948,-255.515,0,0
192227,719.433,-273.828,0,0
193529,766.981,-285.55,0,0
194831,842.032,-321.546,0,0
196132,907.116,-394.212,0,0
197434,944.469,-497.632,0,0
198735,939.383,-602.553,0,0
200037,911.301,-700.869,0,0
201339,850.883,-776.37,0,0
202640.35,777.093,-835.714,0,0
203941.975,699.727,-847.472,0,0
205243.6,643.433,-848.826,0,0
206545.225,588.943,-835.158,0,0
207846.85,566.634,-806.16,0,0
209148.475,558.928,-798.627,0,0
210450.1,550.47,-792.467,0,0
211751.725,546.406,-793.923,0,0
213053.35,543.951,-802.244,0,0
214354.975,535.504,-817.379,0,0
215656.6,521.277,-833.657,0,0
216958.225,500.216,-847.671,0,0
218259.85,476.481,-857.519,0,0
219561,451.025,-862.606,0,0
220863,424.402,-863.472,0,0
222165,400.839,-854.956,0,0
223466,386.108,-845.751,0,0
224768,377.926,-839.528,0,0
226070,371.669,-842.427,0,0
227371,357.634,-849.661,0,0
228673,337.725,-853.191,0,0
229974,318.392,-853.732,0,0
231276,295.562,-853.239,0,0
232578,271.857,-847.262,0,0
233879,249.122,-837.285,0,0
235180.95,228.152,-822.47,0,0
236482.575,212.708,-803.685,0,0
237784.2,202.837,-785.204,0,0
239085.825,197.491,-767.541,0,0
240387.45,196.355,-755.218,0,0
241689.075,192.516,-747.853,0,0
242990.7,184.723,-738.994,0,0
244292.325,178.486,-726.95,0,0
245593.95,174.682,-715.58,0,0
246895.575,172.05,-704.542,0,0
248197.2,169.127,-695.357,0,0
249498.825,165.636,-684.311,0,0
250800,164.508,-672.07,0,0
252102,167.557,-660.336,0,0
253404,172.5,-654.165,0,0
254705,172.868,-650.539,0,0
256007,171.337,-644.837,0,0
257309,170.064,-636.886,0,0
258610,171.517,-627.404,0,0
259912,176.019,-618.807,0,0
261213,181.677,-613.287,0,0
262515,187.468,-609.606,0,0
263817,191.166,-607.119,0,0
265118,194.42,-601.76,0,0
266420,202.774,-594.186,0,0
267721.55,219.579,-590.646,0,0
269023.175,239.958,-599.436,0,0
270324.8,253.782,-619.826,0,0
271626.425,256.015,-647.969,0,0
272928.05,243.491,-675.063,0,0
274229.675,218.201,-693.321,0,0
275531.3,189.61,-696.321,0,0
276832.925,167.774,-689.145,0,0
278134.55,152.289,-679.304,0,0
279436.175,140.416,-668.195,0,0
280737.8,133.846,-655.946,0,0
282039.425,131.477,-646.491,0,0
283341,129.865,-640.697,0,0
284643,126.525,-635.407,0,0
285944,125.144,-628.416,0,0
287246,128.03,-624.928,0,0
288548,128.564,-629.078,0,0
289849,120.757,-633.163,0,0
291151,110.05,-631.71,0,0
292452,100.806,-627.142,0,0
293754,92.6624,-620.765,0,0
295056,85.7883,-613.205,0,0
296357,80.7824,-604.901,0,0
297659,76.8927,-597.025,0,0
298960.525,73.8205,-588.833,0,0
300262.15,71.8664,-580.542,0,0
301563.775,71.5273,-572.38,0,0
302865.4,72.5267,-565.582,0,0
304167.025,73.9829,-560.242,0,0
305468.65,75.2728,-555.993,0,0
306770.275,76.4641,-552.822,0,0
308071.9,77.1674,-550.423,0,0
309373.525,76.9251,-549.354,0,0
310675.15,74.9634,-547.588,0,0
311976.775,73.0158,-545.123,0,0
313278.4,70.9124,-542.668,0,0
314580,68.2546,-539.777,0,0
315882,65.7189,-536.054,0,0
317183,63.8619,-531.839,0,0
318485,62.6288,-527.795,0,0
319787,61.9721,-524.05,0,0
321088,61.3154,-521.369,0,0
322390,59.8852,-519.069,0,0
323691,57.9392,-516.692,0,0
324993,55.2387,-513.832,0,0
326295,52.6044,-510.153,0,0
327596,50.4654,-505.882,0,0
328898,48.6715,-501.679,0,0
330200,47.1286,-497.403,0,0
331501.125,45.8787,-493.024,0,0
332802.75,44.8815,-488.606,0,0
334104.375,44.1505,-484.188,0,0
335406.0,44.031,-480.076,0,0
336707.625,43.9408,-476.352,0,0
338009.25,43.7569,-473.03,0,0
339310.875,43.3645,-469.863,0,0
340612.5,42.7185,-466.745,0,0
341914.125,41.727,-463.411,0,0
343215.75,40.8652,-459.655,0,0
344517.375,40.327,-455.746,0,0
345819.0,39.9394,-451.753,0,0
347121,39.9142,-447.723,0,0
348422,40.3194,-443.836,0,0
349724,40.7777,-440.233,0,0
351025,41.4845,-436.818,0,0
352327,42.3721,-433.752,0,0
353629,43.1123,-430.995,0,0
354930,43.7148,-428.489,0,0
356232,44.1778,-425.988,0,0
357534,44.4326,-423.671,0,0
358835,44.628,-421.145,0,0
360137,44.8975,-418.637,0,0
361438,45.1825,-416.209,0,0
362740.1,45.4285,-413.749,0,0
364041.725,45.7443,-411.376,0,0
365343.35,46.0506,-408.904,0,0
366644.975,46.463,-406.648,0,0
367946.6,46.7272,-404.374,0,0
369248.225,47.1564,-401.906,0,0
370549.85,48.1185,-399.609,0,0
371851.475,49.0892,-398.153,0,0
373153.1,49.4445,-397.063,0,0
374454.725,49.2033,-395.755,0,0
375756.35,48.7162,-394.033,0,0
377057.975,48.735,-391.951,0,0
378359.6,48.8698,-390.511,0,0
379661,48.1471,-389.039,0,0
380963,48.069,-386.6,0,0
382264,48.4426,-385.346,0,0
383566,47.6848,-384.459,0,0
384868,46.2665,-382.821,0,0
386169,44.8736,-380.443,0,0
387471,43.807,-377.68,0,0
388773,43.1627,-374.586,0,0
390074,43.0968,-371.583,0,0
391376,43.1112,-368.92,0,0
392677,43.0017,-366.383,0,0
393979,42.8626,-363.761,0,0
395280.7,42.7998,-360.918,0,0
396582.325,43.0406,-358.054,0,0
397883.95,43.4195,-355.482,0,0
399185.575,43.7292,-352.922,0,0
400006.6,43.9161,-351.329,0,0