Folder: ML_Dmg_Mehdi_Dataset/Accelerated corrosion test data/2025-10-22_09-25-28

Note: README.md
# ML_Dmg_Mehdi_Dataset

File: sample_1.csv
Frequency (Hz),Impedance (ohms),Phase (Radians),Temperature (C),Humidity (%)
10000.0,242.007,-12221.9,0,0
11301.625,215.434,-10825.1,0,0
12603.25,195.777,-9723.19,0,0
13904.875,182.857,-8798.75,0,0
15206.5,190.282,-8064.01,0,0
16508.125,155.378,-7441.37,0,0
17809.75,147.01,-6902.72,0,0
19111.375,136.515,-6434.56,0,0
20413.0,155.936,-5990.41,0,0
21714.625,135.737,-5672.23,0,0
23016.25,122.008,-5370.67,0,0
24317.875,113.347,-5077.91,0,0
25619.5,104.766,-4812.68,0,0
26921.1,113.736,-4562.32,0,0
28222.7,110.839,-4359.41,0,0
29524.4,107.803,-4194.58,0,0
30826,101.105,-4005.78,0,0
32127.6,98.0791,-3848.06,0,0
33429.2,89.5167,-3704.63,0,0
34730.9,81.8477,-3562.12,0,0
36032.5,77.9833,-3430.59,0,0
37334.1,75.3932,-3308.34,0,0
38635.7,73.1324,-3194.43,0,0
39937.4,71.3952,-3087.26,0,0
41239,72.2183,-2988.47,0,0
42540.6,70.4697,-2896.34,0,0
43842.225,67.9999,-2809.43,0,0
45143.85,67.8789,-2727.98,0,0
46445.475,65.1412,-2650.82,0,0
47747.1,64.0587,-2576.87,0,0
49048.725,61.4747,-2506.46,0,0
50350.35,59.4861,-2439.85,0,0
51651.975,58.7936,-2376.31,0,0
52953.6,57.6467,-2315.37,0,0
54255.225,56.6251,-2258.27,0,0
55556.85,55.6364,-2202.59,0,0
56858.475,54.8292,-2149.46,0,0
58160.1,54.4766,-2098.85,0,0
59461.7,54.1882,-2050.82,0,0
60763.3,54.4262,-2004.94,0,0
62065,52.9633,-1960.91,0,0
63366.6,52.3966,-1917.37,0,0
64668.2,52.6894,-1874.91,0,0
65969.8,54.9294,-1837.21,0,0
67271.5,53.6531,-1800.98,0,0
68573.1,52.9712,-1765.18,0,0
69874.7,52.0592,-1730.91,0,0
71176.3,49.9739,-1696.26,0,0
72478,48.1952,-1662.68,0,0
73779.6,47.9892,-1629.18,0,0
75081.2,48.3011,-1596.74,0,0
76382.825,48.8387,-1565.88,0,0
77684.45,50.0232,-1536.42,0,0
78986.075,51.6495,-1508.84,0,0
80287.7,50.8468,-1482.25,0,0
81589.325,50.206,-1454.52,0,0
82890.95,50.8323,-1427.66,0,0
84192.575,52.399,-1401.52,0,0
85494.2,54.2516,-1376.62,0,0
86795.825,55.3972,-1353.3,0,0
88097.45,55.9408,-1330.07,0,0
89399.075,57.7009,-1305.28,0,0
90700.7,60.9942,-1282.37,0,0
92002.3,67.2592,-1261.01,0,0
93303.9,74.6545,-1243.05,0,0
94605.6,73.3743,-1237.1,0,0
95907.2,67.0766,-1217.67,0,0
97208.8,65.2624,-1197.33,0,0
98510.4,64.2583,-1177.24,0,0
99812.1,63.4078,-1157.7,0,0
101114,62.9736,-1137.29,0,0
102415,63.4213,-1115.57,0,0
103717,68.5686,-1094.37,0,0
105019,75.0475,-1077.45,0,0
106320.175,80.5298,-1061.13,0,0
107621.8,86.9804,-1048,0,0
108923.425,91.4031,-1036.91,0,0
110225.05,94.0447,-1028.17,0,0
111526.675,94.0567,-1015.88,0,0
112828.3,97.609,-1006,0,0
114129.925,96.5348,-999.026,0,0
115431.55,93.0048,-989.707,0,0
116733.175,88.6318,-978.061,0,0
118034.8,83.8616,-964.265,0,0
119336.425,81.6392,-948.9,0,0
120638.05,81.585,-934.469,0,0
121939.675,80.2382,-921.778,0,0
123241,78.8024,-906.829,0,0
124543,78.8192,-892.067,0,0
125845,79.3059,-877.26,0,0
127146,80.2921,-862.852,0,0
128448,82.114,-848.076,0,0
129749,84.9559,-833.944,0,0
131051,89.5221,-820.819,0,0
132353,93.7706,-809.724,0,0
133654,96.6821,-799.126,0,0
134956,99.9057,-788.145,0,0
136258,103.193,-777.458,0,0
137559,108.51,-767.995,0,0
138860.775,110.701,-762.452,0,0
140162.4,109.846,-753.954,0,0
141464.025,109.786,-744.069,0,0
142765.65,110.234,-733.26,0,0
144067.275,111.616,-721.714,0,0
145368.9,114.186,-710.227,0,0
146670.525,117.833,-700.584,0,0
147972.15,119.318,-692.614,0,0
149273.775,120.797,-682.147,0,0
150575.4,122.046,-673.151,0,0
151877.025,121.15,-662.159,0,0
153178.65,120.86,-647.466,0,0
154480,124.545,-631.251,0,0
155782,131.225,-614.412,0,0
157084,142.995,-598.529,0,0
158385,155.212,-589.852,0,0
159687,163.991,-578.13,0,0
160988,182.09,-565.938,0,0
162290,201.687,-565.847,0,0
163592,212.495,-567.716,0,0
164893,226.195,-567.177,0,0
166195,239.596,-573.778,0,0
167497,247.425,-584.268,0,0
168798,247.416,-597.219,0,0
170100,239.469,-605.265,0,0
171401.375,230.797,-604.264,0,0
172703.0,226.336,-599.555,0,0
174004.625,224.041,-595.98,0,0
175306.25,222.284,-591.815,0,0
176607.875,220.98,-589.426,0,0
177909.5,218.676,-585.462,0,0
179211.125,216.064,-584.676,0,0
180512.75,207.471,-582.537,0,0
181814.375,199.05,-573.478,0,0
183116.0,192.435,-562.257,0,0
184417.625,187.574,-548.057,0,0
185719.25,186.27,-532.659,0,0
187021,187.046,-517.935,0,0
188322,190.504,-502.392,0,0
189624,194.129,-489.039,0,0
190926,196.883,-473.993,0,0
192227,202.397,-457.078,0,0
193529,210.606,-439.219,0,0
194831,221.689,-422.408,0,0
196132,235.169,-405.418,0,0
197434,251.369,-389.75,0,0
198735,269.269,-375.307,0,0
200037,288.072,-359.888,0,0
201339,311.782,-344.213,0,0
202640.35,343.239,-327.042,0,0
203941.975,385.798,-316.31,0,0
205243.6,437.365,-321.9,0,0
206545.225,483.161,-346.66,0,0
207846.85,514.454,-382.228,0,0
209148.475,533.37,-421.864,0,0
210450.1,534.572,-462.255,0,0
211751.725,521.356,-482.353,0,0
213053.35,521.179,-483.971,0,0
214354.975,533.604,-494.792,0,0
215656.6,543.693,-509.946,0,0
216958.225,553.553,-525.159,0,0
218259.85,563.006,-542.349,0,0
219561,575.977,-557.243,0,0
220863,594.608,-580.185,0,0
222165,612.476,-615.4,0,0
223466,619.98,-661.964,0,0
224768,611.055,-711.178,0,0
226070,593.979,-755.352,0,0
227371,563.989,-798.403,0,0
228673,524,-831.922,0,0
229974,477.703,-850.686,0,0
231276,435,-855.885,0,0
232578,398.821,-853.611,0,0
233879,369.541,-846.951,0,0
235180.95,347.156,-842.269,0,0
236482.575,323.34,-839.025,0,0
237784.2,299.627,-833.54,0,0
239085.825,277.172,-824.907,0,0
240387.45,257.524,-814.397,0,0
241689.075,240.331,-803.203,0,0
242990.7,224.955,-790.917,0,0
244292.325,212.87,-779.214,0,0
245593.95,201.147,-768.828,0,0
246895.575,189.145,-757.925,0,0
248197.2,178.726,-745.336,0,0
249498.825,170.001,-732.807,0,0
250800,162.712,-719.96,0,0
252102,156.894,-708.29,0,0
253404,150.908,-696.001,0,0
254705,147.19,-682.983,0,0
256007,145.102,-671.408,0,0
257309,143.342,-660.061,0,0
258610,142.551,-648.38,0,0
259912,144.127,-636.615,0,0
261213,148.057,-627.139,0,0
262515,152.501,-619.727,0,0
263817,157.324,-614.02,0,0
265118,163.16,-609.726,0,0
266420,170.149,-609.643,0,0
267721.55,174.279,-615.141,0,0
269023.175,170.916,-622.847,0,0
270324.8,161.162,-626.004,0,0
271626.425,149.96,-622.404,0,0
272928.05,142.411,-613.992,0,0
274229.675,138.955,-605.093,0,0
275531.3,137.527,-596.864,0,0
276832.925,138.242,-589.531,0,0
278134.55,140.08,-584.402,0,0
279436.175,141.036,-581.446,0,0
280737.8,140.589,-578.402,0,0
282039.425,140.616,-575.74,0,0
283341,138.669,-573.369,0,0
284643,137.195,-569.526,0,0
285944,135.721,-566.687,0,0
287246,132.056,-562.632,0,0
288548,129.775,-555.095,0,0
289849,131.851,-547.645,0,0
291151,134.949,-544.201,0,0
292452,135.462,-541.725,0,0
293754,134.951,-537.933,0,0
295056,134.911,-532.738,0,0
296357,136.743,-526.317,0,0
297659,141.011,-521.183,0,0
298960.525,145.917,-517.767,0,0
300262.15,150.839,-515.083,0,0
301563.775,157.091,-513.224,0,0
302865.4,163.756,-514.937,0,0
304167.025,168.488,-517.584,0,0
305468.65,172.592,-521.391,0,0
306770.275,176.349,-526.264,0,0
308071.9,178.199,-533.556,0,0
309373.525,176.68,-540.739,0,0
310675.15,173.957,-546.978,0,0
311976.775,169.302,-552.735,0,0
313278.4,163.389,-556.924,0,0
314580,157.491,-559.748,0,0
315882,151.138,-562.54,0,0
317183,143.482,-564.436,0,0
318485,135.102,-564.522,0,0
319787,126.666,-562.935,0,0
321088,118.975,-559.734,0,0
322390,111.849,-554.906,0,0
323691,106.797,-548.714,0,0
324993,104.031,-542.784,0,0
326295,102.742,-538.216,0,0
327596,101.662,-535.048,0,0
328898,100.104,-532.919,0,0
330200,97.9252,-531.252,0,0
331501.125,95.0539,-529.596,0,0
332802.75,91.6656,-527.756,0,0
334104.375,87.8978,-525.564,0,0
335406.0,83.8297,-522.444,0,0
336707.625,80.1243,-518.629,0,0
338009.25,76.9815,-514.634,0,0
339310.875,74.2045,-510.508,0,0
340612.5,71.8111,-506.355,0,0
341914.125,69.5957,-502.313,0,0
343215.75,67.4708,-498.361,0,0
344517.375,65.3835,-494.366,0,0
345819.0,63.2479,-490.274,0,0
347121,61.2322,-485.737,0,0
348422,59.7546,-480.987,0,0
349724,58.8436,-476.307,0,0
351025,58.1374,-471.97,0,0
352327,57.5819,-467.705,0,0
353629,57.1975,-463.7,0,0
354930,56.6927,-459.698,0,0
356232,56.4588,-455.825,0,0
357534,56.3017,-451.922,0,0
358835,56.0652,-448.107,0,0
360137,56.2388,-444.224,0,0
361438,56.4691,-440.581,0,0
362740.1,56.5722,-437.052,0,0
364041.725,56.8255,-433.296,0,0
365343.35,57.3669,-429.55,0,0
366644.975,57.9608,-426.221,0,0
367946.6,58.1954,-422.445,0,0
369248.225,59.1092,-418.109,0,0
370549.85,60.8955,-413.858,0,0
371851.475,63.4916,-410.049,0,0
373153.1,66.8269,-407.28,0,0
374454.725,69.9662,-405.599,0,0
375756.35,72.6699,-404.515,0,0
377057.975,75.1434,-403.916,0,0
378359.6,77.2484,-403.867,0,0
379661,78.5616,-403.959,0,0
380963,80.0435,-403.544,0,0
382264,82.1537,-404.397,0,0
383566,83.0141,-406.608,0,0
384868,81.8792,-408.777,0,0
386169,79.8087,-409.875,0,0
387471,77.1892,-410.215,0,0
388773,74.4052,-409.277,0,0
390074,72.4307,-407.681,0,0
391376,70.8157,-406.286,0,0
392677,68.9236,-405.192,0,0
393979,66.4579,-403.575,0,0
395280.7,64.043,-401.259,0,0
396582.325,61.8742,-398.335,0,0
397883.95,60.173,-394.901,0,0
399185.575,59.1213,-391.329,0,0
400006.6,58.67,-389.123,0,0

File: sample_2.csv
Frequency (Hz),Impedance (ohms),Phase (Radians),Temperature (C),Humidity (%)
10000.0,232.952,-11470.8,0,0
11301.625,206.628,-10159.3,0,0
12603.25,185.899,-9120.85,0,0
13904.875,186.461,-8266.08,0,0
15206.5,169.739,-7575.89,0,0
16508.125,144.815,-6982.67,0,0
17809.75,134.369,-6473.11,0,0
19111.375,129.609,-6031.88,0,0
20413.0,119.107,-5646.98,0,0
21714.625,130.067,-5316.45,0,0
23016.25,113.584,-5020.14,0,0
24317.875,103.796,-4753.84,0,0
25619.5,98.3172,-4508.67,0,0
26921.1,95.4735,-4290.05,0,0
28222.7,90.283,-4089.64,0,0
29524.4,93.4732,-3905.1,0,0
30826,88.5718,-3750.92,0,0
32127.6,82.4438,-3596.23,0,0
33429.2,79.976,-3457.26,0,0
34730.9,76.0335,-3325.84,0,0
36032.5,73.2605,-3204.15,0,0
37334.1,71.1702,-3090.13,0,0
38635.7,69.0071,-2984.8,0,0
39937.4,67.2517,-2885.45,0,0
41239,65.7159,-2792.19,0,0
42540.6,64.9292,-2705.31,0,0
43842.225,63.1182,-2623.03,0,0
45143.85,62.0603,-2545.2,0,0
46445.475,61.5121,-2472.32,0,0
47747.1,60.571,-2403,0,0
49048.725,60.7394,-2338.96,0,0
50350.35,57.9316,-2276.53,0,0
51651.975,56.497,-2217.1,0,0
52953.6,55.1104,-2159.42,0,0
54255.225,54.2717,-2104.55,0,0
55556.85,54.0484,-2052.35,0,0
56858.475,53.8722,-2002.41,0,0
58160.1,54.1278,-1954.94,0,0
59461.7,54.4618,-1908.7,0,0
60763.3,56.4855,-1866.21,0,0
62065,58.8896,-1827.69,0,0
63366.6,55.5668,-1790.89,0,0
64668.2,52.6621,-1752.68,0,0
65969.8,50.8133,-1713.17,0,0
67271.5,51.0682,-1675.65,0,0
68573.1,53.8304,-1641.73,0,0
69874.7,55.5002,-1611.15,0,0
71176.3,52.2658,-1583.24,0,0
72478,47.7811,-1552.72,0,0
73779.6,45.2502,-1519.42,0,0
75081.2,45.2357,-1486.98,0,0
76382.825,46.9475,-1456.45,0,0
77684.45,49.7465,-1427.98,0,0
78986.075,52.8776,-1403.9,0,0
80287.7,51.9016,-1382.29,0,0
81589.325,49.0349,-1357.11,0,0
82890.95,48.04,-1331.28,0,0
84192.575,48.6284,-1306.5,0,0
85494.2,49.2538,-1282.99,0,0
86795.825,50.4116,-1260.64,0,0
88097.45,51.026,-1239.38,0,0
89399.075,51.3506,-1217.99,0,0
90700.7,51.2627,-1197.7,0,0
92002.3,53.0176,-1176.22,0,0
93303.9,54.7821,-1157.4,0,0
94605.6,55.3832,-1141.07,0,0
95907.2,54.3868,-1121.24,0,0
97208.8,57.7489,-1103.9,0,0
98510.4,57.2477,-1090.03,0,0
99812.1,53.3944,-1074.91,0,0
101114,50.4804,-1057.66,0,0
102415,46.8754,-1037.66,0,0
103717,46.0341,-1016.41,0,0
105019,49.5479,-996.152,0,0
106320.175,54.0481,-978.718,0,0
107621.8,58.0294,-966.851,0,0
108923.425,56.3244,-955.144,0,0
110225.05,53.0529,-939.884,0,0
111526.675,51.6908,-921.842,0,0
112828.3,52.1491,-904.391,0,0
114129.925,53.7237,-887.155,0,0
115431.55,56.3266,-870.596,0,0
116733.175,59.8576,-855.018,0,0
118034.8,63.7513,-840.559,0,0
119336.425,68.1556,-828.349,0,0
120638.05,70.7412,-818.14,0,0
121939.675,70.434,-807.52,0,0
123241,69.4675,-794.91,0,0
124543,68.8853,-781.546,0,0
125845,68.3624,-766.85,0,0
127146,69.5651,-751.352,0,0
128448,72.2241,-736.799,0,0
129749,75.1371,-723.237,0,0
131051,78.1254,-710.487,0,0
132353,79.548,-698.329,0,0
133654,81.007,-684.799,0,0
134956,82.0874,-671.122,0,0
136258,84.2169,-655.988,0,0
137559,87.243,-640.797,0,0
138860.775,90.4776,-626.047,0,0
140162.4,93.4837,-609.996,0,0
141464.025,99.103,-591.484,0,0
142765.65,108.481,-574.415,0,0
144067.275,117.992,-558.936,0,0
145368.9,128.827,-544.018,0,0
146670.525,140.77,-529.549,0,0
147972.15,154.832,-514.764,0,0
149273.775,174.618,-499.748,0,0
150575.4,202.714,-493.817,0,0
151877.025,226.71,-502.96,0,0
153178.65,237.849,-518.582,0,0
154480,237.522,-529.792,0,0
155782,235.251,-533.22,0,0
157084,230.2,-535.049,0,0
158385,227.138,-530.834,0,0
159687,225.083,-525.555,0,0
160988,225.157,-518.295,0,0
162290,233.023,-515.414,0,0
163592,228.835,-521.402,0,0
164893,215.465,-518.739,0,0
166195,202.979,-505.847,0,0
167497,195.718,-488.152,0,0
168798,191.046,-467.461,0,0
170100,191.668,-444.189,0,0
171401.375,196.19,-421.814,0,0
172703.0,204.057,-398.181,0,0
174004.625,215.828,-374.454,0,0
175306.25,233.776,-351.08,0,0
176607.875,257.393,-331.606,0,0
177909.5,284.767,-320.479,0,0
179211.125,306.758,-317.939,0,0
180512.75,317.844,-319.223,0,0
181814.375,323.685,-302.879,0,0
183116.0,340.122,-284.082,0,0
184417.625,362.554,-260.98,0,0
185719.25,394.801,-242.492,0,0
187021,431.906,-227.674,0,0
188322,473.988,-220.14,0,0
189624,512.393,-218.201,0,0
190926,556.213,-210.453,0,0
192227,615.267,-207.962,0,0
193529,686.181,-221.785,0,0
194831,755.601,-263.739,0,0
196132,809.712,-321.756,0,0
197434,852.247,-384.764,0,0
198735,886.932,-463.424,0,0
200037,898.955,-547.18,0,0
201339,893.458,-635.381,0,0
202640.35,860.525,-712.57,0,0
203941.975,819.514,-777.299,0,0
205243.6,769.953,-832.232,0,0
206545.225,704.474,-866.009,0,0
207846.85,648.159,-878.582,0,0
209148.475,609.967,-883.883,0,0
210450.1,570.511,-898.639,0,0
211751.725,521.743,-905.251,0,0
213053.35,478.707,-895.602,0,0
214354.975,444.439,-882.09,0,0
215656.6,416.414,-866.888,0,0
216958.225,394.494,-848.689,0,0
218259.85,379.248,-831.96,0,0
219561,368.219,-816.616,0,0
220863,360.8,-803.725,0,0
222165,357.042,-793.101,0,0
223466,354.248,-786.916,0,0
224768,351.817,-782.279,0,0
226070,348.942,-779.862,0,0
227371,347.972,-778.822,0,0
228673,347.706,-783.289,0,0
229974,341.619,-792.885,0,0
231276,330.103,-800.062,0,0
232578,316.262,-806.493,0,0
233879,299.063,-809.625,0,0
235180.95,281.597,-809.279,0,0
236482.575,264.926,-806.879,0,0
237784.2,247.493,-802.422,0,0
239085.825,232.162,-795.14,0,0
240387.45,217.601,-786.967,0,0
241689.075,204.869,-777.004,0,0
242990.7,194.848,-766.315,0,0
244292.325,187.293,-757.332,0,0
245593.95,179.419,-751.358,0,0
246895.575,167.671,-745.997,0,0
248197.2,154.119,-736.471,0,0
249498.825,141.754,-723.703,0,0
250800,131.346,-708.255,0,0
252102,124.946,-690.815,0,0
253404,121.781,-674.463,0,0
254705,119.935,-658.626,0,0
256007,120.565,-642.28,0,0
257309,124.152,-627.776,0,0
258610,129.227,-614.679,0,0
259912,136.076,-603.285,0,0
261213,144.496,-594.451,0,0
262515,153.154,-588.546,0,0
263817,160.993,-584.928,0,0
265118,168.459,-582.959,0,0
266420,174.328,-582.919,0,0
267721.55,178.764,-583.369,0,0
269023.175,181.685,-584.715,0,0
270324.8,182.455,-584.813,0,0
271626.425,184.057,-582.214,0,0
272928.05,188.54,-579.077,0,0
274229.675,196.82,-577.318,0,0
275531.3,209.257,-582.701,0,0
276832.925,216.045,-598.107,0,0
278134.55,212.34,-614.146,0,0
279436.175,202.488,-625.918,0,0
280737.8,189.956,-632.822,0,0
282039.425,177.406,-636.655,0,0
283341,162.229,-637.217,0,0
284643,150.056,-632.145,0,0
285944,137.803,-628.25,0,0
287246,123.909,-618.541,0,0
288548,114.729,-601.533,0,0
289849,115.97,-582.365,0,0
291151,126.436,-568.443,0,0
292452,141.953,-565.563,0,0
293754,149.772,-574.376,0,0
295056,146.634,-579.683,0,0
296357,147.993,-577.984,0,0
297659,151.921,-587.707,0,0
298960.525,143.059,-596.797,0,0
300262.15,132.003,-598.399,0,0
301563.775,123.644,-595.486,0,0
302865.4,118.787,-592.568,0,0
304167.025,114.24,-592.251,0,0
305468.65,107.047,-592.241,0,0
306770.275,98.4706,-589.615,0,0
308071.9,90.7983,-585.111,0,0
309373.525,84.1081,-579.508,0,0
310675.15,78.4109,-573.454,0,0
311976.775,73.5253,-566.982,0,0
313278.4,69.5949,-560.35,0,0
314580,66.321,-553.761,0,0
315882,63.7185,-547.363,0,0
317183,61.3492,-540.859,0,0
318485,59.6998,-534.491,0,0
319787,58.6135,-528.534,0,0
321088,57.4557,-522.734,0,0
322390,56.4942,-516.81,0,0
323691,55.8121,-510.793,0,0
324993,55.815,-504.089,0,0
326295,57.9995,-497.489,0,0
327596,61.3618,-493.323,0,0
328898,63.6586,-490.766,0,0
330200,65.8323,-488.87,0,0
331501.125,67.2025,-488.207,0,0
332802.75,66.7929,-488.345,0,0
334104.375,64.3643,-487.482,0,0
335406.0,61.892,-485.005,0,0
336707.625,59.7605,-481.899,0,0
338009.25,57.9002,-478.363,0,0
339310.875,56.3571,-474.543,0,0
340612.5,55.0447,-470.382,0,0
341914.125,54.1468,-465.993,0,0
343215.75,53.6346,-461.521,0,0
344517.375,53.6922,-456.853,0,0
345819.0,54.2744,-452.418,0,0
347121,55.2816,-448.298,0,0
348422,56.6015,-444.449,0,0
349724,58.36,-441.031,0,0
351025,60.2504,-438.283,0,0
352327,61.8269,-436.252,0,0
353629,62.9038,-434.092,0,0
354930,64.1511,-431.947,0,0
356232,65.4026,-429.844,0,0
357534,67.1994,-427.908,0,0
358835,69.1943,-426.795,0,0
360137,70.6481,-426.549,0,0
361438,71.4117,-426.518,0,0
362740.1,71.5894,-426.629,0,0
364041.725,71.2007,-426.595,0,0
365343.35,70.3089,-426.062,0,0
366644.975,69.5207,-424.984,0,0
367946.6,69.05,-423.63,0,0
369248.225,69.1767,-422.76,0,0
370549.85,68.5612,-422.622,0,0
371851.475,67.3009,-421.859,0,0
373153.1,66.4129,-421.004,0,0
374454.725,65.2189,-420.392,0,0
375756.35,63.5576,-419.473,0,0
377057.975,61.9819,-418.239,0,0
378359.6,60.4686,-417.322,0,0
379661,57.6297,-416.211,0,0
380963,54.9747,-412.753,0,0
382264,54.9365,-409.966,0,0
383566,53.777,-408.896,0,0
384868,51.6093,-407.061,0,0
386169,49.4423,-404.44,0,0
387471,47.6134,-401.268,0,0
388773,46.2274,-397.719,0,0
390074,45.7925,-394.038,0,0
391376,46.0244,-391.296,0,0
392677,45.4884,-389.537,0,0
393979,43.7903,-387.268,0,0
395280.7,41.9549,-383.783,0,0
396582.325,41.01,-379.548,0,0
397883.95,40.9284,-375.297,0,0
399185.575,41.4582,-371.375,0,0
400006.6,42.0008,-369.135,0,0