Folder: ML_Dmg_Mehdi_Dataset/Accelerated corrosion test data/2025-10-15_11-00-19

Note: README.md
# ML_Dmg_Mehdi_Dataset

File: sample_1.csv
Frequency (Hz),Impedance (ohms),Phase (Radians),Temperature (C),Humidity (%)
10000.0,240.647,-12194.1,0,0
11301.625,215.181,-10799.7,0,0
12603.25,195.11,-9700.98,0,0
13904.875,184.862,-8779,0,0
15206.5,186.507,-8046.6,0,0
16508.125,156.429,-7422.21,0,0
17809.75,146.567,-6886.31,0,0
19111.375,136.223,-6418.31,0,0
20413.0,156.113,-5975.72,0,0
21714.625,137.497,-5658.77,0,0
23016.25,122.544,-5356.91,0,0
24317.875,114.165,-5065.07,0,0
25619.5,105.867,-4800.88,0,0
26921.1,113.87,-4551.88,0,0
28222.7,111.488,-4349,0,0
29524.4,107.452,-4182.59,0,0
30826,101.991,-3995.86,0,0
32127.6,97.6932,-3837.96,0,0
33429.2,88.8037,-3694.28,0,0
34730.9,81.9812,-3552.78,0,0
36032.5,78.1282,-3421.61,0,0
37334.1,75.4558,-3299.6,0,0
38635.7,72.941,-3185.94,0,0
39937.4,70.7484,-3079.48,0,0
41239,72.2068,-2981.04,0,0
42540.6,70.3792,-2888.43,0,0
43842.225,67.6954,-2801.75,0,0
45143.85,68.1008,-2720.5,0,0
46445.475,65.7998,-2643.76,0,0
47747.1,63.9411,-2570.28,0,0
49048.725,61.4369,-2500.26,0,0
50350.35,59.469,-2433.76,0,0
51651.975,58.585,-2370.22,0,0
52953.6,57.6139,-2309.43,0,0
54255.225,56.6344,-2252.32,0,0
55556.85,55.7433,-2197.02,0,0
56858.475,54.8002,-2144,0,0
58160.1,54.5447,-2093.53,0,0
59461.7,54.2243,-2045.63,0,0
60763.3,54.4587,-1999.7,0,0
62065,52.9741,-1955.83,0,0
63366.6,52.3416,-1912.23,0,0
64668.2,52.8296,-1870.4,0,0
65969.8,54.8688,-1832.38,0,0
67271.5,53.623,-1795.98,0,0
68573.1,53.1229,-1760.47,0,0
69874.7,52.0293,-1726.37,0,0
71176.3,50.3475,-1692.05,0,0
72478,48.3373,-1658.34,0,0
73779.6,47.9314,-1624.92,0,0
75081.2,48.3843,-1592.66,0,0
76382.825,49.1363,-1561.64,0,0
77684.45,50.1797,-1532.39,0,0
78986.075,51.7856,-1504.81,0,0
80287.7,50.9824,-1478.47,0,0
81589.325,50.4905,-1450.56,0,0
82890.95,51.1564,-1423.8,0,0
84192.575,52.5447,-1397.72,0,0
85494.2,54.8878,-1372.99,0,0
86795.825,55.8356,-1349.95,0,0
88097.45,56.195,-1326.65,0,0
89399.075,57.9172,-1302.06,0,0
90700.7,61.1789,-1278.82,0,0
92002.3,67.2787,-1257.47,0,0
93303.9,74.8434,-1240.57,0,0
94605.6,74.1946,-1233.72,0,0
95907.2,66.8993,-1215.18,0,0
97208.8,64.6423,-1194.61,0,0
98510.4,64.1773,-1173.98,0,0
99812.1,63.1048,-1154.44,0,0
101114,63.0853,-1134.29,0,0
102415,63.1741,-1112.83,0,0
103717,67.9041,-1091.55,0,0
105019,74.8646,-1074.1,0,0
106320.175,81.0623,-1057.85,0,0
107621.8,87.6186,-1045.49,0,0
108923.425,91.7304,-1034.84,0,0
110225.05,93.6879,-1026.46,0,0
111526.675,93.7425,-1013.7,0,0
112828.3,96.0775,-1004.1,0,0
114129.925,95.047,-996.204,0,0
115431.55,91.725,-986.655,0,0
116733.175,87.1098,-974.621,0,0
118034.8,82.905,-960.426,0,0
119336.425,81.0838,-944.947,0,0
120638.05,81.4164,-930.507,0,0
121939.675,80.3088,-917.967,0,0
123241,78.8271,-903.459,0,0
124543,78.7398,-888.399,0,0
125845,79.4706,-873.673,0,0
127146,80.7839,-859.346,0,0
128448,82.8162,-844.858,0,0
129749,85.2575,-830.899,0,0
131051,90.2367,-817.51,0,0
132353,94.5163,-807.122,0,0
133654,97.3269,-796.632,0,0
134956,100.133,-786.115,0,0
136258,102.981,-775.416,0,0
137559,107.91,-765.558,0,0
138860.775,110.215,-759.572,0,0
140162.4,109.843,-751.314,0,0
141464.025,109.436,-741.056,0,0
142765.65,109.998,-730.055,0,0
144067.275,111.455,-718.616,0,0
145368.9,114.055,-707.521,0,0
146670.525,116.943,-697.534,0,0
147972.15,119.396,-688.673,0,0
149273.775,121.034,-677.777,0,0
150575.4,123.243,-669.856,0,0
151877.025,121.619,-658.587,0,0
153178.65,121.498,-643.63,0,0
154480,125.538,-626.93,0,0
155782,132.929,-610.274,0,0
157084,145.016,-595.689,0,0
158385,157.733,-586.416,0,0
159687,167.249,-575.646,0,0
160988,185.319,-565.083,0,0
162290,204.284,-564.687,0,0
163592,215.615,-567.285,0,0
164893,227.437,-569.178,0,0
166195,240.028,-575.334,0,0
167497,246.11,-586.352,0,0
168798,244.941,-598.167,0,0
170100,235.751,-604.629,0,0
171401.375,227.37,-602.11,0,0
172703.0,223.913,-597.235,0,0
174004.625,220.34,-593.174,0,0
175306.25,218.958,-587.548,0,0
176607.875,218.959,-584.569,0,0
177909.5,217.44,-581.529,0,0
179211.125,213.282,-579.99,0,0
180512.75,206.264,-576.099,0,0
181814.375,199.185,-567.604,0,0
183116.0,193.049,-557.123,0,0
184417.625,187.529,-543.908,0,0
185719.25,186.023,-527.055,0,0
187021,187.525,-512.068,0,0
188322,190.815,-497.075,0,0
189624,194.681,-482.481,0,0
190926,199.161,-467.556,0,0
192227,204.653,-451.08,0,0
193529,213.475,-433.946,0,0
194831,223.903,-417.261,0,0
196132,237.068,-399.941,0,0
197434,252.827,-382.513,0,0
198735,272.727,-366.315,0,0
200037,293.768,-351.082,0,0
201339,320.428,-334.877,0,0
202640.35,355.263,-319.948,0,0
203941.975,398.172,-313.796,0,0
205243.6,449.67,-321.561,0,0
206545.225,493.999,-349.392,0,0
207846.85,523.759,-387.729,0,0
209148.475,538.279,-427.962,0,0
210450.1,536.816,-465.22,0,0
211751.725,526.053,-483.982,0,0
213053.35,522.966,-487.845,0,0
214354.975,535.409,-495.078,0,0
215656.6,547.856,-509.021,0,0
216958.225,557.217,-525.81,0,0
218259.85,568.486,-541.354,0,0
219561,583.123,-558.023,0,0
220863,602.228,-583.648,0,0
222165,619.68,-621.388,0,0
223466,624.033,-669.96,0,0
224768,614.471,-718.344,0,0
226070,593.791,-764.111,0,0
227371,563.445,-805.312,0,0
228673,521.134,-838.366,0,0
229974,474.427,-855.558,0,0
231276,431.284,-859.601,0,0
232578,395.585,-855.676,0,0
233879,367.704,-849.884,0,0
235180.95,343.755,-845.48,0,0
236482.575,318.895,-841.151,0,0
237784.2,295.524,-834.225,0,0
239085.825,273.479,-825.049,0,0
240387.45,254.069,-813.841,0,0
241689.075,237.354,-802.227,0,0
242990.7,223.005,-789.945,0,0
244292.325,210.787,-778.578,0,0
245593.95,198.955,-767.969,0,0
246895.575,187.255,-756.729,0,0
248197.2,177.06,-743.927,0,0
249498.825,168.69,-731.455,0,0
250800,161.658,-719.189,0,0
252102,155.39,-707.088,0,0
253404,149.729,-694.817,0,0
254705,145.789,-681.876,0,0
256007,143.71,-669.697,0,0
257309,142.296,-658.173,0,0
258610,141.616,-646.651,0,0
259912,143.371,-634.84,0,0
261213,147.521,-625.034,0,0
262515,152.523,-617.669,0,0
263817,157.838,-612.332,0,0
265118,163.705,-608.977,0,0
266420,170.401,-609.478,0,0
267721.55,173.142,-615.316,0,0
269023.175,168.92,-621.937,0,0
270324.8,158.894,-624.005,0,0
271626.425,148.534,-619.119,0,0
272928.05,142.024,-610.348,0,0
274229.675,139.588,-601.283,0,0
275531.3,139.324,-593.668,0,0
276832.925,140.042,-587.061,0,0
278134.55,142.146,-581.975,0,0
279436.175,144.206,-579.244,0,0
280737.8,144.803,-577.853,0,0
282039.425,143.843,-577.202,0,0
283341,140.571,-575.464,0,0
284643,137.658,-571.588,0,0
285944,135.585,-567.992,0,0
287246,131.47,-563.844,0,0
288548,128.749,-555.373,0,0
289849,131.24,-547.359,0,0
291151,134.544,-543.687,0,0
292452,135.946,-541.599,0,0
293754,134.747,-538.849,0,0
295056,133.501,-532.876,0,0
296357,135.971,-525.342,0,0
297659,140.911,-520.612,0,0
298960.525,145.603,-517.111,0,0
300262.15,150.65,-514.551,0,0
301563.775,156.808,-512.655,0,0
302865.4,164.03,-513.905,0,0
304167.025,169.114,-517.462,0,0
305468.65,173.125,-521.565,0,0
306770.275,176.557,-526.865,0,0
308071.9,177.643,-534.412,0,0
309373.525,175.667,-540.639,0,0
310675.15,173.894,-546.407,0,0
311976.775,170.222,-553.228,0,0
313278.4,163.497,-559.248,0,0
314580,155.239,-562.21,0,0
315882,147.915,-563.716,0,0
317183,139.776,-564.284,0,0
318485,131.738,-563.19,0,0
319787,124.292,-560.947,0,0
321088,117.075,-557.416,0,0
322390,110.907,-552.703,0,0
323691,106.045,-547.184,0,0
324993,103.103,-541.679,0,0
326295,101.251,-536.938,0,0
327596,100.035,-533.347,0,0
328898,98.7727,-530.749,0,0
330200,97.017,-528.88,0,0
331501.125,94.5923,-527.35,0,0
332802.75,91.3341,-525.47,0,0
334104.375,87.7632,-523.288,0,0
335406.0,84.0485,-520.411,0,0
336707.625,80.4593,-516.981,0,0
338009.25,77.1895,-513.312,0,0
339310.875,74.1625,-509.189,0,0
340612.5,71.7379,-505.01,0,0
341914.125,69.5015,-500.937,0,0
343215.75,67.3706,-497.008,0,0
344517.375,65.196,-493.002,0,0
345819.0,63.0807,-488.766,0,0
347121,61.1569,-484.295,0,0
348422,59.7052,-479.432,0,0
349724,58.7449,-474.837,0,0
351025,58.0255,-470.42,0,0
352327,57.5388,-466.098,0,0
353629,57.1902,-461.989,0,0
354930,56.8941,-457.956,0,0
356232,56.7451,-453.995,0,0
357534,56.6973,-450.143,0,0
358835,56.7135,-446.443,0,0
360137,56.8283,-442.609,0,0
361438,57.2898,-438.998,0,0
362740.1,57.5349,-435.534,0,0
364041.725,57.8787,-432.007,0,0
365343.35,58.4492,-428.507,0,0
366644.975,58.9698,-425.242,0,0
367946.6,59.1219,-421.705,0,0
369248.225,59.8352,-417.345,0,0
370549.85,61.6823,-412.887,0,0
371851.475,64.6128,-409.046,0,0
373153.1,68.1627,-406.511,0,0
374454.725,71.596,-405.174,0,0
375756.35,74.2282,-404.753,0,0
377057.975,76.2256,-404.43,0,0
378359.6,78.0397,-404.353,0,0
379661,79.4101,-404.629,0,0
380963,80.7588,-404.591,0,0
382264,82.4352,-405.889,0,0
383566,82.4177,-408.096,0,0
384868,80.7886,-409.942,0,0
386169,78.264,-410.874,0,0
387471,75.0661,-410.501,0,0
388773,72.3815,-408.847,0,0
390074,70.5881,-406.854,0,0
391376,69.2773,-405.08,0,0
392677,67.794,-403.748,0,0
393979,65.6466,-402.304,0,0
395280.7,63.1658,-400.079,0,0
396582.325,61.0665,-397.037,0,0
397883.95,59.494,-393.617,0,0
399185.575,58.4018,-390.144,0,0
400006.6,57.8802,-387.88,0,0

File: sample_2.csv
Frequency (Hz),Impedance (ohms),Phase (Radians),Temperature (C),Humidity (%)
10000.0,228.969,-11434,0,0
11301.625,203.395,-10127,0,0
12603.25,183.066,-9092.12,0,0
13904.875,186.302,-8245.09,0,0
15206.5,163.57,-7554.96,0,0
16508.125,142.958,-6960.04,0,0
17809.75,132.77,-6452.08,0,0
19111.375,128.292,-6012.16,0,0
20413.0,118.014,-5628.94,0,0
21714.625,126.932,-5300.13,0,0
23016.25,112.348,-5003.29,0,0
24317.875,102.69,-4737.89,0,0
25619.5,97.0079,-4493.68,0,0
26921.1,94.7512,-4275.31,0,0
28222.7,89.5577,-4076.08,0,0
29524.4,93.1297,-3892.44,0,0
30826,87.1588,-3738.26,0,0
32127.6,81.8309,-3583.93,0,0
33429.2,79.5705,-3445.52,0,0
34730.9,75.6236,-3314.47,0,0
36032.5,72.8538,-3193.3,0,0
37334.1,70.5566,-3079.59,0,0
38635.7,68.7568,-2974.65,0,0
39937.4,66.7832,-2875.7,0,0
41239,65.4577,-2782.73,0,0
42540.6,64.3447,-2695.88,0,0
43842.225,62.7919,-2614.04,0,0
45143.85,61.6942,-2536.37,0,0
46445.475,60.8085,-2464,0,0
47747.1,60.2487,-2394.39,0,0
49048.725,60.5359,-2330.51,0,0
50350.35,57.7525,-2268.59,0,0
51651.975,56.5253,-2209.34,0,0
52953.6,54.8871,-2151.97,0,0
54255.225,54.1316,-2097.3,0,0
55556.85,53.7493,-2045.23,0,0
56858.475,53.6554,-1995.5,0,0
58160.1,53.9347,-1948.22,0,0
59461.7,54.4898,-1902.18,0,0
60763.3,56.1056,-1859.8,0,0
62065,58.7699,-1821.4,0,0
63366.6,55.4517,-1784.53,0,0
64668.2,52.896,-1746.39,0,0
65969.8,50.6867,-1707.33,0,0
67271.5,51.1062,-1670,0,0
68573.1,53.2244,-1635.99,0,0
69874.7,55.7133,-1605.72,0,0
71176.3,52.3972,-1577.58,0,0
72478,47.7503,-1547.05,0,0
73779.6,45.0253,-1514.11,0,0
75081.2,45.1037,-1481.76,0,0
76382.825,46.7866,-1451.34,0,0
77684.45,49.592,-1423.09,0,0
78986.075,52.8872,-1398.87,0,0
80287.7,51.7144,-1377.39,0,0
81589.325,49.0622,-1352.27,0,0
82890.95,47.9444,-1326.58,0,0
84192.575,48.6679,-1301.81,0,0
85494.2,49.3376,-1278.27,0,0
86795.825,50.3255,-1256.2,0,0
88097.45,50.851,-1234.95,0,0
89399.075,51.2196,-1213.46,0,0
90700.7,51.2415,-1193.27,0,0
92002.3,52.7305,-1172.02,0,0
93303.9,55.2598,-1153.27,0,0
94605.6,55.2165,-1136.71,0,0
95907.2,54.0424,-1117.15,0,0
97208.8,57.5899,-1099.92,0,0
98510.4,57.3995,-1086.22,0,0
99812.1,53.2474,-1071.48,0,0
101114,50.4857,-1053.99,0,0
102415,46.8392,-1033.95,0,0
103717,45.9497,-1012.88,0,0
105019,49.1459,-992.506,0,0
106320.175,53.8302,-975.437,0,0
107621.8,57.5108,-963.527,0,0
108923.425,56.0195,-951.47,0,0
110225.05,52.7445,-936.256,0,0
111526.675,51.3926,-918.418,0,0
112828.3,51.7797,-900.944,0,0
114129.925,53.4004,-883.773,0,0
115431.55,56.1182,-867.143,0,0
116733.175,59.5308,-851.753,0,0
118034.8,63.5761,-837.528,0,0
119336.425,67.3176,-825.384,0,0
120638.05,69.7326,-814.753,0,0
121939.675,69.3882,-803.692,0,0
123241,68.6867,-790.835,0,0
124543,68.2211,-777.255,0,0
125845,68.355,-762.494,0,0
127146,69.7576,-747.317,0,0
128448,72.7743,-732.833,0,0
129749,75.7292,-719.901,0,0
131051,78.5205,-707.162,0,0
132353,79.9643,-695.299,0,0
133654,81.0842,-681.807,0,0
134956,82.2467,-667.981,0,0
136258,84.3605,-652.903,0,0
137559,87.1817,-637.878,0,0
138860.775,90.2764,-622.981,0,0
140162.4,93.2542,-606.809,0,0
141464.025,98.6791,-588.04,0,0
142765.65,107.95,-570.591,0,0
144067.275,117.912,-555.158,0,0
145368.9,128.895,-539.702,0,0
146670.525,141.775,-525.151,0,0
147972.15,157.074,-510.756,0,0
149273.775,177.454,-497.394,0,0
150575.4,204.63,-492.963,0,0
151877.025,227.302,-502.738,0,0
153178.65,237.05,-517.319,0,0
154480,236.69,-528.616,0,0
155782,233.372,-532.218,0,0
157084,227.96,-532.89,0,0
158385,223.798,-526.413,0,0
159687,224.492,-520.349,0,0
160988,224.743,-514.473,0,0
162290,232.284,-510.083,0,0
163592,228.749,-517.096,0,0
164893,215.527,-514.916,0,0
166195,201.985,-501.769,0,0
167497,194.405,-482.757,0,0
168798,191.781,-460.553,0,0
170100,193.543,-438.432,0,0
171401.375,197.876,-416.336,0,0
172703.0,206.604,-392.846,0,0
174004.625,218.464,-369.355,0,0
175306.25,236.846,-345.077,0,0
176607.875,261.931,-327.643,0,0
177909.5,288.877,-315.907,0,0
179211.125,311.874,-315.874,0,0
180512.75,321.579,-315.158,0,0
181814.375,327.281,-300.306,0,0
183116.0,343.105,-280.423,0,0
184417.625,366.835,-256.875,0,0
185719.25,401.333,-237.865,0,0
187021,438.538,-226.319,0,0
188322,480.419,-217.611,0,0
189624,520.827,-215.799,0,0
190926,565.873,-210.787,0,0
192227,624.731,-209.327,0,0
193529,697.588,-225.037,0,0
194831,766.97,-271.447,0,0
196132,818.718,-332.11,0,0
197434,858.527,-397.871,0,0
198735,890.913,-477.559,0,0
200037,897.537,-561.847,0,0
201339,889.595,-649.465,0,0
202640.35,855.068,-728.277,0,0
203941.975,804.484,-790.158,0,0
205243.6,752.74,-836.985,0,0
206545.225,689.643,-865.521,0,0
207846.85,636.838,-874.875,0,0
209148.475,599.621,-879.732,0,0
210450.1,560.853,-893.368,0,0
211751.725,514.017,-897.389,0,0
213053.35,473.552,-886.763,0,0
214354.975,441.64,-872.845,0,0
215656.6,416.452,-858.067,0,0
216958.225,396.391,-841.884,0,0
218259.85,381.852,-826.563,0,0
219561,371.415,-812.094,0,0
220863,364.586,-800.864,0,0
222165,360.625,-790.76,0,0
223466,359.589,-786.214,0,0
224768,355.92,-784.615,0,0
226070,351.036,-782.774,0,0
227371,349.301,-782.237,0,0
228673,347.869,-787.334,0,0
229974,340.682,-797.168,0,0
231276,327.053,-805.174,0,0
232578,311.019,-809.795,0,0
233879,293.55,-811.257,0,0
235180.95,276.214,-809.641,0,0
236482.575,259.393,-806.451,0,0
237784.2,242.49,-801.276,0,0
239085.825,226.727,-793.36,0,0
240387.45,212.851,-783.867,0,0
241689.075,201.322,-773.863,0,0
242990.7,191.591,-763.553,0,0
244292.325,183.396,-754.994,0,0
245593.95,174.931,-747.798,0,0
246895.575,163.973,-741.598,0,0
248197.2,150.706,-731.415,0,0
249498.825,139.44,-717.924,0,0
250800,130.212,-702.405,0,0
252102,124.458,-685.202,0,0
253404,122.068,-668.945,0,0
254705,121.013,-653.601,0,0
256007,121.908,-637.821,0,0
257309,126.22,-623.267,0,0
258610,131.962,-611.205,0,0
259912,138.818,-600.429,0,0
261213,147.379,-592.077,0,0
262515,156.247,-586.612,0,0
263817,164.759,-583.939,0,0
265118,171.893,-583.606,0,0
266420,176.775,-584.676,0,0
267721.55,179.961,-585.974,0,0
269023.175,180.974,-587.193,0,0
270324.8,180.579,-585.667,0,0
271626.425,182.679,-581.618,0,0
272928.05,188.057,-578.016,0,0
274229.675,197.662,-577.006,0,0
275531.3,210.233,-583.722,0,0
276832.925,215.964,-600.536,0,0
278134.55,210.16,-616.504,0,0
279436.175,199.465,-627.209,0,0
280737.8,186.531,-633.451,0,0
282039.425,173.749,-636.184,0,0
283341,158.823,-635.573,0,0
284643,147.71,-630.338,0,0
285944,135.302,-626.706,0,0
287246,121.392,-615.817,0,0
288548,113.712,-598.874,0,0
289849,115.302,-579.863,0,0
291151,126.664,-566.565,0,0
292452,142.153,-565.021,0,0
293754,148.84,-574.506,0,0
295056,145.568,-579.137,0,0
296357,147.135,-579.097,0,0
297659,148.159,-588.716,0,0
298960.525,138.973,-595.417,0,0
300262.15,129.062,-596.5,0,0
301563.775,120.469,-593.311,0,0
302865.4,116.339,-589.884,0,0
304167.025,112.073,-589.762,0,0
305468.65,104.844,-589.773,0,0
306770.275,96.1882,-587.146,0,0
308071.9,88.2671,-582.146,0,0
309373.525,81.9734,-575.889,0,0
310675.15,76.9988,-569.671,0,0
311976.775,72.5454,-563.363,0,0
313278.4,68.8204,-556.7,0,0
314580,65.9065,-550.228,0,0
315882,63.4712,-543.893,0,0
317183,61.4658,-537.48,0,0
318485,60.1693,-531.366,0,0
319787,59.2763,-525.805,0,0
321088,58.278,-520.363,0,0
322390,57.2272,-514.853,0,0
323691,56.4484,-509.06,0,0
324993,56.3973,-502.411,0,0
326295,58.4804,-496.026,0,0
327596,61.824,-492.104,0,0
328898,64.0397,-489.817,0,0
330200,65.5899,-488.099,0,0
331501.125,66.4662,-487.252,0,0
332802.75,65.7727,-487.056,0,0
334104.375,63.4101,-485.918,0,0
335406.0,60.9695,-483.168,0,0
336707.625,58.9049,-479.832,0,0
338009.25,57.2374,-476.069,0,0
339310.875,55.9324,-472.037,0,0
340612.5,54.9034,-467.697,0,0
341914.125,54.4072,-463.335,0,0
343215.75,54.251,-459.004,0,0
344517.375,54.5729,-454.622,0,0
345819.0,55.3572,-450.409,0,0
347121,56.5177,-446.607,0,0
348422,57.9396,-443.169,0,0
349724,59.5456,-440.15,0,0
351025,61.2454,-437.615,0,0
352327,62.6831,-435.672,0,0
353629,63.6881,-433.705,0,0
354930,64.7967,-431.598,0,0
356232,66.1198,-429.755,0,0
357534,67.6268,-428.013,0,0
358835,69.4029,-426.994,0,0
360137,70.801,-426.789,0,0
361438,71.3719,-427.082,0,0
362740.1,71.1223,-427.278,0,0
364041.725,70.4063,-427.107,0,0
365343.35,69.3938,-426.611,0,0
366644.975,68.1408,-425.545,0,0
367946.6,67.2878,-423.889,0,0
369248.225,67.2989,-422.632,0,0
370549.85,66.8113,-422.364,0,0
371851.475,65.4171,-421.7,0,0
373153.1,64.1244,-420.515,0,0
374454.725,62.9634,-419.424,0,0
375756.35,61.4672,-418.411,0,0
377057.975,59.8029,-417.016,0,0
378359.6,58.3429,-415.785,0,0
379661,55.5441,-414.536,0,0
380963,53.0377,-410.905,0,0
382264,53.0713,-407.967,0,0
383566,52.1365,-406.761,0,0
384868,50.0532,-404.902,0,0
386169,47.9889,-402.165,0,0
387471,46.4298,-398.805,0,0
388773,45.3732,-395.336,0,0
390074,44.9629,-391.885,0,0
391376,45.1158,-389.037,0,0
392677,44.6635,-387.188,0,0
393979,43.1297,-384.903,0,0
395280.7,41.5614,-381.512,0,0
396582.325,40.7479,-377.423,0,0
397883.95,40.6538,-373.381,0,0
399185.575,41.1739,-369.61,0,0
400006.6,41.6241,-367.477,0,0