Folder: ML_Dmg_Mehdi_Dataset/Accelerated corrosion test data/2025-10-20_09-18-15 (part 2)

File: sample_3.csv
Frequency (Hz),Impedance (ohms),Phase (Radians),Temperature (C),Humidity (%)
10000.0,254.476,-11904,0,0
11301.625,227.275,-10544.3,0,0
12603.25,205.852,-9463.48,0,0
13904.875,188.31,-8582.02,0,0
15206.5,176.099,-7843.65,0,0
16508.125,163.454,-7244.3,0,0
17809.75,158.625,-6711.14,0,0
19111.375,148.804,-6256.45,0,0
20413.0,163.778,-5849.64,0,0
21714.625,141.749,-5526.74,0,0
23016.25,129.438,-5218.37,0,0
24317.875,121.728,-4936.34,0,0
25619.5,115.184,-4687.08,0,0
26921.1,110.473,-4453.98,0,0
28222.7,105.539,-4244.94,0,0
29524.4,110.822,-4067.05,0,0
30826,103.185,-3893.28,0,0
32127.6,103.621,-3726.43,0,0
33429.2,100.253,-3602.68,0,0
34730.9,88.9291,-3462.94,0,0
36032.5,84.4279,-3333.64,0,0
37334.1,81.274,-3214.57,0,0
38635.7,78.7492,-3103.28,0,0
39937.4,76.4982,-2999.72,0,0
41239,75.3418,-2901.83,0,0
42540.6,73.801,-2811.37,0,0
43842.225,72.8411,-2725,0,0
45143.85,71.9203,-2644.77,0,0
46445.475,70.6085,-2567.95,0,0
47747.1,71.2505,-2495,0,0
49048.725,69.1039,-2428.95,0,0
50350.35,67.1918,-2363.09,0,0
51651.975,66.8322,-2299.91,0,0
52953.6,67.0073,-2239.58,0,0
54255.225,69.7466,-2183.96,0,0
55556.85,67.6026,-2135.83,0,0
56858.475,62.2116,-2082.83,0,0
58160.1,61.6471,-2030.23,0,0
59461.7,62.2155,-1980.52,0,0
60763.3,63.4718,-1933.52,0,0
62065,65.3339,-1888.1,0,0
63366.6,69.2017,-1844.05,0,0
64668.2,77.8145,-1801.78,0,0
65969.8,93.2122,-1775.49,0,0
67271.5,75.928,-1750.13,0,0
68573.1,76.3565,-1712.21,0,0
69874.7,77.188,-1682.37,0,0
71176.3,71.938,-1651.84,0,0
72478,71.0605,-1618.97,0,0
73779.6,69.6335,-1590.72,0,0
75081.2,65.9312,-1562.74,0,0
76382.825,62.1217,-1533.61,0,0
77684.45,59.2441,-1504.6,0,0
78986.075,56.7901,-1475.79,0,0
80287.7,55.0907,-1447.46,0,0
81589.325,53.9509,-1419.98,0,0
82890.95,53.3628,-1393.29,0,0
84192.575,52.9791,-1367.4,0,0
85494.2,52.7599,-1342.17,0,0
86795.825,52.8553,-1317.76,0,0
88097.45,53.2939,-1293.56,0,0
89399.075,54.6012,-1269.54,0,0
90700.7,56.4671,-1247.67,0,0
92002.3,58.4378,-1226.84,0,0
93303.9,61.115,-1207.52,0,0
94605.6,61.9193,-1192.51,0,0
95907.2,56.895,-1174.26,0,0
97208.8,55.6583,-1152.74,0,0
98510.4,55.4863,-1132.62,0,0
99812.1,55.2859,-1113.22,0,0
101114,55.116,-1093.38,0,0
102415,56.6342,-1072.82,0,0
103717,60.2068,-1055.03,0,0
105019,63.5993,-1040.33,0,0
106320.175,63.5767,-1026.4,0,0
107621.8,61.8919,-1010.93,0,0
108923.425,59.8997,-993.954,0,0
110225.05,59.7097,-975.548,0,0
111526.675,61.8076,-957.4,0,0
112828.3,64.0582,-941.461,0,0
114129.925,65.166,-925.673,0,0
115431.55,66.7866,-908.585,0,0
116733.175,70.1467,-891.676,0,0
118034.8,76.0631,-874.877,0,0
119336.425,83.0065,-862.006,0,0
120638.05,89.9444,-856.264,0,0
121939.675,86.1129,-847.855,0,0
123241,86.735,-833.765,0,0
124543,88.6466,-821.808,0,0
125845,90.7609,-811.067,0,0
127146,90.998,-801.172,0,0
128448,89.9615,-791.199,0,0
129749,88.8979,-778.697,0,0
131051,90.0268,-766.888,0,0
132353,88.742,-756,0,0
133654,87.6543,-744.315,0,0
134956,86.1326,-731.677,0,0
136258,84.5265,-718.435,0,0
137559,83.8861,-703.157,0,0
138860.775,85.3687,-689.777,0,0
140162.4,84.7511,-676.5,0,0
141464.025,83.6963,-662.81,0,0
142765.65,82.4464,-646.688,0,0
144067.275,82.5979,-629.341,0,0
145368.9,84.1418,-611.404,0,0
146670.525,86.3844,-592.489,0,0
147972.15,90.4543,-572.842,0,0
149273.775,96.5667,-552.345,0,0
150575.4,106.466,-532.253,0,0
151877.025,118.59,-514.774,0,0
153178.65,130.492,-500.887,0,0
154480,140.667,-487.316,0,0
155782,149.937,-472.243,0,0
157084,161.487,-454.842,0,0
158385,176.649,-444.057,0,0
159687,181.833,-429.481,0,0
160988,194.678,-404.769,0,0
162290,216.945,-377.559,0,0
163592,250.186,-352.148,0,0
164893,298.32,-338.304,0,0
166195,350.463,-346.66,0,0
167497,392.611,-375.358,0,0
168798,415.026,-410.218,0,0
170100,417.275,-447.922,0,0
171401.375,410.014,-461.57,0,0
172703.0,410.628,-469.549,0,0
174004.625,417.365,-481.318,0,0
175306.25,423.602,-496.564,0,0
176607.875,424.62,-524.262,0,0
177909.5,395.914,-546.039,0,0
179211.125,369.316,-535.209,0,0
180512.75,366.717,-520.072,0,0
181814.375,372.803,-517.601,0,0
183116.0,368.827,-525.115,0,0
184417.625,355.989,-527.412,0,0
185719.25,338.777,-518.927,0,0
187021,329.785,-497.889,0,0
188322,330.672,-480.221,0,0
189624,332.732,-461.78,0,0
190926,342.176,-445.215,0,0
192227,350.271,-431.302,0,0
193529,361.978,-411.371,0,0
194831,383.082,-396.135,0,0
196132,411.798,-385.399,0,0
197434,438.515,-392.296,0,0
198735,452.571,-403.231,0,0
200037,458.659,-405.323,0,0
201339,467.546,-395,0,0
202640.35,491.705,-385.137,0,0
203941.975,522.069,-387.329,0,0
205243.6,547.133,-402.565,0,0
206545.225,560.28,-411.102,0,0
207846.85,583.276,-411.183,0,0
209148.475,618.6,-422.121,0,0
210450.1,649.866,-444.014,0,0
211751.725,678.164,-475.814,0,0
213053.35,701.135,-511.446,0,0
214354.975,714.44,-556.305,0,0
215656.6,719.549,-598.344,0,0
216958.225,719.742,-643.64,0,0
218259.85,707.378,-688.292,0,0
219561,690.626,-724.796,0,0
220863,674.098,-761.112,0,0
222165,647.599,-802.878,0,0
223466,602.081,-830.927,0,0
224768,561.511,-836.435,0,0
226070,536.977,-837.145,0,0
227371,518.527,-845.165,0,0
228673,492.768,-856.009,0,0
229974,467.499,-863.454,0,0
231276,438.616,-867.296,0,0
232578,411.949,-866.229,0,0
233879,387.463,-863.756,0,0
235180.95,364.846,-860.389,0,0
236482.575,340.018,-856.812,0,0
237784.2,315.178,-849.269,0,0
239085.825,291.885,-836.555,0,0
240387.45,272.252,-821.661,0,0
241689.075,255.302,-803.738,0,0
242990.7,245.774,-784.247,0,0
244292.325,239.748,-771.603,0,0
245593.95,231.484,-757.886,0,0
246895.575,226.296,-744.172,0,0
248197.2,221.835,-731.293,0,0
249498.825,221.725,-719.605,0,0
250800,220.028,-713.13,0,0
252102,214.743,-706.752,0,0
253404,208.017,-697.219,0,0
254705,202.243,-683.723,0,0
256007,201.177,-667.749,0,0
257309,206.21,-652.762,0,0
258610,214.296,-641.371,0,0
259912,226.687,-632.93,0,0
261213,243.859,-632.773,0,0
262515,254.201,-646.523,0,0
263817,252.493,-660.744,0,0
265118,243.613,-671.062,0,0
266420,229.518,-676.841,0,0
267721.55,213.795,-673.509,0,0
269023.175,202.873,-665.272,0,0
270324.8,195.842,-654.889,0,0
271626.425,193.229,-645.068,0,0
272928.05,191.369,-637.504,0,0
274229.675,190.277,-628.479,0,0
275531.3,192.598,-618.974,0,0
276832.925,199.204,-611.924,0,0
278134.55,207.377,-610.397,0,0
279436.175,213.962,-614.259,0,0
280737.8,215.628,-621.59,0,0
282039.425,211.928,-628.249,0,0
283341,204.844,-632.174,0,0
284643,196.915,-632.499,0,0
285944,189.452,-630.066,0,0
287246,183.817,-625.704,0,0
288548,180.131,-620.952,0,0
289849,179.22,-616.888,0,0
291151,177.26,-616.109,0,0
292452,172.752,-614.511,0,0
293754,168.651,-609.613,0,0
295056,168.126,-604.312,0,0
296357,169.653,-602.146,0,0
297659,169.883,-602.839,0,0
298960.525,167.83,-604.391,0,0
300262.15,163.843,-605.831,0,0
301563.775,158.139,-606.088,0,0
302865.4,151.74,-604.298,0,0
304167.025,145.963,-601.099,0,0
305468.65,140.96,-596.711,0,0
306770.275,137.135,-591.986,0,0
308071.9,134.473,-587.169,0,0
309373.525,132.823,-583.185,0,0
310675.15,131.196,-580.547,0,0
311976.775,128.07,-578.665,0,0
313278.4,123.433,-575.543,0,0
314580,119.18,-570.006,0,0
315882,117.373,-563.518,0,0
317183,117.387,-558.151,0,0
318485,117.73,-554.228,0,0
319787,117.914,-551.018,0,0
321088,117.996,-547.752,0,0
322390,119.233,-545.134,0,0
323691,120.732,-544.82,0,0
324993,120.168,-546.372,0,0
326295,117.249,-547.643,0,0
327596,112.757,-547.611,0,0
328898,107.963,-545.921,0,0
330200,103.722,-543.527,0,0
331501.125,99.3425,-540.868,0,0
332802.75,94.7789,-537.292,0,0
334104.375,90.3984,-533.081,0,0
335406.0,86.4145,-527.972,0,0
336707.625,83.2342,-522.051,0,0
338009.25,81.0989,-515.927,0,0
339310.875,79.3862,-509.706,0,0
340612.5,78.8285,-502.789,0,0
341914.125,80.2114,-496.281,0,0
343215.75,83.0825,-491.773,0,0
344517.375,85.2546,-489.424,0,0
345819.0,86.0614,-487.997,0,0
347121,85.3844,-486.541,0,0
348422,84.0178,-483.794,0,0
349724,83.2595,-479.676,0,0
351025,84.3433,-475.792,0,0
352327,85.9094,-473.663,0,0
353629,86.4014,-472.817,0,0
354930,85.391,-471.826,0,0
356232,83.8417,-470.005,0,0
357534,82.0401,-467.161,0,0
358835,81.3579,-463.527,0,0
360137,81.3441,-460.522,0,0
361438,81.0998,-458.081,0,0
362740.1,80.4325,-454.979,0,0
364041.725,81.0237,-451.485,0,0
365343.35,82.5539,-449.027,0,0
366644.975,83.6784,-448.441,0,0
367946.6,82.4518,-448.461,0,0
369248.225,79.856,-446.141,0,0
370549.85,79.1383,-441.918,0,0
371851.475,80.6603,-439.293,0,0
373153.1,80.871,-438.842,0,0
374454.725,79.1284,-437.551,0,0
375756.35,77.4499,-434.753,0,0
377057.975,76.6967,-431.344,0,0
378359.6,76.9555,-427.847,0,0
379661,78.0092,-425.263,0,0
380963,78.6801,-423.859,0,0
382264,78.6013,-422.457,0,0
383566,78.3452,-421.225,0,0
384868,77.1801,-419.874,0,0
386169,75.7167,-417.764,0,0
387471,74.1864,-414.892,0,0
388773,73.0521,-411.18,0,0
390074,72.8291,-406.789,0,0
391376,74.123,-402.528,0,0
392677,76.4341,-399.348,0,0
393979,78.6686,-397.392,0,0
395280.7,80.7254,-395.94,0,0
396582.325,82.6603,-395.291,0,0
397883.95,83.9968,-395.42,0,0
399185.575,84.5976,-396.017,0,0
400006.6,84.2994,-396.513,0,0

File: sample_4.csv
Frequency (Hz),Impedance (ohms),Phase (Radians),Temperature (C),Humidity (%)
10000.0,263.323,-11945.4,0,0
11301.625,233.951,-10582.3,0,0
12603.25,213.136,-9494.24,0,0
13904.875,193.636,-8606.94,0,0
15206.5,180.301,-7876.87,0,0
16508.125,198,-7268.36,0,0
17809.75,155.731,-6750.69,0,0
19111.375,145.178,-6290.27,0,0
20413.0,140.392,-5887.28,0,0
21714.625,146.367,-5541.51,0,0
23016.25,124.576,-5238.59,0,0
24317.875,115.86,-4952.66,0,0
25619.5,111.985,-4697.6,0,0
26921.1,106.08,-4466.32,0,0
28222.7,119.228,-4263.22,0,0
29524.4,113.331,-4085.37,0,0
30826,98.7402,-3909.55,0,0
32127.6,100.707,-3747.86,0,0
33429.2,89.8102,-3606.2,0,0
34730.9,84.5125,-3467.25,0,0
36032.5,81.5298,-3338.99,0,0
37334.1,79.3098,-3219.52,0,0
38635.7,76.9199,-3106.69,0,0
39937.4,77.0613,-3000.33,0,0
41239,80.2323,-2905.08,0,0
42540.6,78.9131,-2817.53,0,0
43842.225,73.5637,-2733.07,0,0
45143.85,71.102,-2651.52,0,0
46445.475,70.175,-2573.59,0,0
47747.1,69.8617,-2503.79,0,0
49048.725,65.7791,-2433.96,0,0
50350.35,64.3609,-2366.21,0,0
51651.975,63.8073,-2301.33,0,0
52953.6,65.6801,-2238.02,0,0
54255.225,73.5442,-2180.77,0,0
55556.85,71.4662,-2137.81,0,0
56858.475,65.4293,-2083.26,0,0
58160.1,66.2597,-2030.63,0,0
59461.7,70.4437,-1980.3,0,0
60763.3,80.7122,-1941.63,0,0
62065,69.6186,-1908.66,0,0
63366.6,63.9164,-1862.39,0,0
64668.2,64.2222,-1818.87,0,0
65969.8,66.3419,-1777.69,0,0
67271.5,69.6734,-1741.49,0,0
68573.1,74.0778,-1712.19,0,0
69874.7,66.3909,-1682.81,0,0
71176.3,64.73,-1648.17,0,0
72478,58.9109,-1616.05,0,0
73779.6,57.4364,-1579.74,0,0
75081.2,59.5189,-1546.42,0,0
76382.825,61.9652,-1517.38,0,0
77684.45,65.3681,-1489.32,0,0
78986.075,64.0986,-1467.07,0,0
80287.7,61.1243,-1440.02,0,0
81589.325,60.7368,-1413.93,0,0
82890.95,59.5118,-1389.1,0,0
84192.575,58.1438,-1364.22,0,0
85494.2,57.0721,-1339.91,0,0
86795.825,56.222,-1316.01,0,0
88097.45,54.626,-1293.12,0,0
89399.075,53.4127,-1268.68,0,0
90700.7,53.3906,-1245.5,0,0
92002.3,53.741,-1222.23,0,0
93303.9,55.2228,-1201.21,0,0
94605.6,53.7645,-1181.22,0,0
95907.2,53.0328,-1158.77,0,0
97208.8,53.5368,-1136.93,0,0
98510.4,54.6954,-1115.31,0,0
99812.1,57.0841,-1094.54,0,0
101114,60.7409,-1075.78,0,0
102415,59.9603,-1060.61,0,0
103717,57.7391,-1037.97,0,0
105019,60.9495,-1014.41,0,0
106320.175,67.2998,-993.572,0,0
107621.8,73.8201,-975.277,0,0
108923.425,82.0566,-957.946,0,0
110225.05,90.5531,-944.631,0,0
111526.675,97.0215,-933.439,0,0
112828.3,102.714,-923.096,0,0
114129.925,106.758,-914.155,0,0
115431.55,109.34,-906.135,0,0
116733.175,109.56,-897.688,0,0
118034.8,108.199,-887.419,0,0
119336.425,109.329,-874.2,0,0
120638.05,114.562,-869.893,0,0
121939.675,106.993,-863.784,0,0
123241,102,-851.451,0,0
124543,99.1241,-838.412,0,0
125845,98.0403,-826.446,0,0
127146,95.0074,-816.403,0,0
128448,89.8453,-806.118,0,0
129749,81.8282,-791.882,0,0
131051,76.2415,-774.051,0,0
132353,73.2083,-755.096,0,0
133654,71.9464,-736.079,0,0
134956,72.1798,-717.144,0,0
136258,73.6677,-698.505,0,0
137559,75.8577,-680.789,0,0
138860.775,77.7603,-662.249,0,0
140162.4,81.1194,-643.12,0,0
141464.025,86.2934,-624.005,0,0
142765.65,92.1125,-605.841,0,0
144067.275,98.506,-587.656,0,0
145368.9,105.783,-569.197,0,0
146670.525,114.617,-550.458,0,0
147972.15,125.001,-532.037,0,0
149273.775,136.611,-513.933,0,0
150575.4,150.82,-494.764,0,0
151877.025,169.045,-477.345,0,0
153178.65,191.562,-464.17,0,0
154480,213.705,-458.213,0,0
155782,231.866,-454.262,0,0
157084,247.614,-451.365,0,0
158385,262.994,-446.733,0,0
159687,282.037,-446.48,0,0
160988,298.369,-450.067,0,0
162290,307.988,-456.275,0,0
163592,311.031,-457.717,0,0
164893,317.44,-449.576,0,0
166195,333.499,-437.988,0,0
167497,361.764,-435.804,0,0
168798,390.176,-447.86,0,0
170100,413.985,-476.047,0,0
171401.375,415.634,-515.497,0,0
172703.0,393.646,-547.504,0,0
174004.625,360.279,-558.363,0,0
175306.25,329.29,-551.785,0,0
176607.875,307.31,-530.684,0,0
177909.5,297.995,-506.837,0,0
179211.125,296.175,-483.783,0,0
180512.75,299.871,-464.716,0,0
181814.375,303.818,-448.364,0,0
183116.0,306.32,-432.105,0,0
184417.625,309.861,-412.126,0,0
185719.25,316.56,-390.513,0,0
187021,325.337,-366.493,0,0
188322,338.986,-339.186,0,0
189624,358.69,-309.951,0,0
190926,386.596,-279.887,0,0
192227,424.357,-251.239,0,0
193529,471.614,-228.046,0,0
194831,526.358,-212.146,0,0
196132,588.708,-202.764,0,0
197434,661.453,-203.61,0,0
198735,745.879,-219.933,0,0
200037,837.406,-269.421,0,0
201339,912.296,-352.707,0,0
202640.35,954.697,-454.318,0,0
203941.975,969.974,-561.699,0,0
205243.6,955.96,-662.736,0,0
206545.225,921.496,-754.743,0,0
207846.85,863.423,-833.565,0,0
209148.475,790.07,-886.071,0,0
210450.1,719.708,-909.593,0,0
211751.725,660.419,-917.099,0,0
213053.35,609.074,-915.706,0,0
214354.975,573.042,-903.196,0,0
215656.6,551.171,-900.335,0,0
216958.225,525.932,-902.503,0,0
218259.85,500.46,-903.452,0,0
219561,476.131,-904.045,0,0
220863,450.229,-902.806,0,0
222165,427.154,-898.414,0,0
223466,407.651,-893.316,0,0
224768,389.303,-892.431,0,0
226070,367.297,-891.899,0,0
227371,342.382,-889.136,0,0
228673,315.78,-881.134,0,0
229974,292.417,-867.385,0,0
231276,272.285,-851.393,0,0
232578,257.173,-834.831,0,0
233879,243.672,-817.421,0,0
235180.95,234.478,-801.004,0,0
236482.575,226.118,-785.758,0,0
237784.2,219.797,-769.953,0,0
239085.825,216.248,-755.608,0,0
240387.45,214.071,-743.077,0,0
241689.075,212.887,-732.904,0,0
242990.7,211.161,-724.886,0,0
244292.325,207.453,-718.456,0,0
245593.95,201.608,-710.517,0,0
246895.575,195.918,-700.434,0,0
248197.2,192.037,-689.122,0,0
249498.825,190.425,-677.879,0,0
250800,189.876,-669.06,0,0
252102,186.598,-660.615,0,0
253404,183.801,-649.793,0,0
254705,180.452,-638.698,0,0
256007,178.326,-622.988,0,0
257309,180.643,-604.924,0,0
258610,189.154,-586.798,0,0
259912,202.825,-571.946,0,0
261213,220.507,-560.858,0,0
262515,242.725,-555.05,0,0
263817,264.219,-560.297,0,0
265118,280.468,-568.288,0,0
266420,297.81,-579.829,0,0
267721.55,311.382,-602.259,0,0
269023.175,310.286,-628.415,0,0
270324.8,299.594,-647.135,0,0
271626.425,288.842,-659.565,0,0
272928.05,275.875,-668.933,0,0
274229.675,264.565,-677.481,0,0
275531.3,247.747,-685.609,0,0
276832.925,225.815,-687.152,0,0
278134.55,206.048,-677.42,0,0
279436.175,196.649,-663.385,0,0
280737.8,192.268,-654.308,0,0
282039.425,189.313,-644.786,0,0
283341,190.218,-639.366,0,0
284643,189.055,-638.597,0,0
285944,182.376,-638.025,0,0
287246,174.196,-631.84,0,0
288548,168.702,-621.217,0,0
289849,169.175,-609.148,0,0
291151,176.03,-598.938,0,0
292452,187.434,-595.997,0,0
293754,197.279,-601.474,0,0
295056,200.18,-613.572,0,0
296357,193.823,-624.16,0,0
297659,183.854,-628.812,0,0
298960.525,174.606,-630.183,0,0
300262.15,165.312,-629.647,0,0
301563.775,156.677,-627.059,0,0
302865.4,149.179,-623.675,0,0
304167.025,141.722,-619.182,0,0
305468.65,135.68,-613.567,0,0
306770.275,130.91,-607.447,0,0
308071.9,128.001,-601.666,0,0
309373.525,125.375,-597.508,0,0
310675.15,121.957,-593.135,0,0
311976.775,119.036,-588.356,0,0
313278.4,116.951,-583.377,0,0
314580,115.555,-579.292,0,0
315882,114,-575.752,0,0
317183,112.573,-572.482,0,0
318485,111.573,-569.809,0,0
319787,110.038,-568.838,0,0
321088,106.564,-568.478,0,0
322390,100.976,-567.106,0,0
323691,94.2598,-563.173,0,0
324993,88.9983,-557.193,0,0
326295,85.1969,-550.601,0,0
327596,82.2918,-544.122,0,0
328898,79.8299,-537.16,0,0
330200,79.0082,-529.623,0,0
331501.125,80.2302,-523.044,0,0
332802.75,82.0045,-519.186,0,0
334104.375,81.7301,-516.619,0,0
335406.0,80.3199,-513.355,0,0
336707.625,78.4271,-509.197,0,0
338009.25,76.6561,-504.134,0,0
339310.875,75.554,-497.781,0,0
340612.5,76.225,-490.923,0,0
341914.125,78.956,-484.685,0,0
343215.75,83.0671,-480.588,0,0
344517.375,86.8179,-478.852,0,0
345819.0,89.238,-478.607,0,0
347121,89.8558,-478.919,0,0
348422,89.095,-478.65,0,0
349724,87.8973,-477.816,0,0
351025,85.5938,-476.337,0,0
352327,83.5934,-473.137,0,0
353629,82.7541,-469.882,0,0
354930,81.8743,-466.846,0,0
356232,81.3534,-463.489,0,0
357534,81.2906,-460.617,0,0
358835,80.8243,-458.117,0,0
360137,79.6079,-455.188,0,0
361438,78.8507,-451.156,0,0
362740.1,78.9484,-447.435,0,0
364041.725,78.9833,-443.902,0,0
365343.35,79.0297,-440.015,0,0
366644.975,79.4861,-435.544,0,0
367946.6,80.7964,-430.633,0,0
369248.225,83.6007,-425.9,0,0
370549.85,87.8654,-421.726,0,0
371851.475,93.9771,-419.682,0,0
373153.1,99.5209,-421.065,0,0
374454.725,102.446,-424.299,0,0
375756.35,102.842,-427.224,0,0
377057.975,101.93,-428.819,0,0
378359.6,101.476,-429.334,0,0
379661,100.96,-430.465,0,0
380963,99.3718,-431.018,0,0
382264,98.6666,-430.623,0,0
383566,98.5207,-431.519,0,0
384868,97.1668,-433.619,0,0
386169,93.3597,-435.589,0,0
387471,87.9276,-434.906,0,0
388773,83.9872,-431.477,0,0
390074,82.8021,-428.211,0,0
391376,82.0723,-427.019,0,0
392677,79.9,-426.525,0,0
393979,76.6038,-425.678,0,0
395280.7,72.7517,-423.574,0,0
396582.325,68.8044,-420.364,0,0
397883.95,65.4577,-416.088,0,0
399185.575,62.8441,-411.031,0,0
400006.6,61.7815,-407.492,0,0