Folder: ML_Dmg_Mehdi_Dataset/Accelerated corrosion test data/2025-10-20_18-00-03 (part 3)

File: sample_5.csv
Frequency (Hz),Impedance (ohms),Phase (Radians),Temperature (C),Humidity (%)
10000.0,3423.96,-2113.43,0,0
11301.625,3352.43,-2508.83,0,0
12603.25,3157.88,-2612.75,0,0
13904.875,2974.1,-2797.53,0,0
15206.5,2772.35,-2643.5,0,0
16508.125,2597.04,-2690.23,0,0
17809.75,2442.55,-2532.87,0,0
19111.375,2282.78,-2633.4,0,0
20413.0,2151.73,-2555.96,0,0
21714.625,2035.61,-2463.44,0,0
23016.25,1900.13,-2498.07,0,0
24317.875,1799.13,-2430.13,0,0
25619.5,1698.15,-2390.44,0,0
26921.1,1610.13,-2339.66,0,0
28222.7,1532.06,-2273.52,0,0
29524.4,1434.59,-2270.22,0,0
30826,1402.01,-2134.6,0,0
32127.6,1328.82,-2106.73,0,0
33429.2,1258.62,-2080.01,0,0
34730.9,1206.64,-2026.27,0,0
36032.5,1151.88,-1985.29,0,0
37334.1,1091.09,-1960.65,0,0
38635.7,1072.02,-1874.63,0,0
39937.4,1031.64,-1830.59,0,0
41239,963.578,-1834.17,0,0
42540.6,955.548,-1754.43,0,0
43842.225,907.639,-1736.01,0,0
45143.85,880.518,-1691.4,0,0
46445.475,834.219,-1676.32,0,0
47747.1,800.883,-1648.77,0,0
49048.725,755.279,-1637.46,0,0
50350.35,752.671,-1579.58,0,0
51651.975,704.66,-1576.7,0,0
52953.6,708.228,-1516.26,0,0
54255.225,678.307,-1496.23,0,0
55556.85,646.165,-1480.59,0,0
56858.475,626.43,-1454.7,0,0
58160.1,611.925,-1425.56,0,0
59461.7,595.294,-1397.64,0,0
60763.3,584.743,-1365,0,0
62065,567.238,-1339.98,0,0
63366.6,556.851,-1311.61,0,0
64668.2,538.149,-1293.06,0,0
65969.8,517.114,-1276.45,0,0
67271.5,547.983,-1207.62,0,0
68573.1,495.113,-1228.23,0,0
69874.7,452.236,-1234.88,0,0
71176.3,471.565,-1188.1,0,0
72478,472.577,-1157,0,0
73779.6,471.131,-1129.11,0,0
75081.2,444.462,-1128.85,0,0
76382.825,432.445,-1112.54,0,0
77684.45,398.832,-1114.23,0,0
78986.075,389.851,-1095.91,0,0
80287.7,372.581,-1085.2,0,0
81589.325,396.623,-1040.73,0,0
82890.95,367.929,-1040,0,0
84192.575,345.681,-1033.22,0,0
85494.2,340.287,-1014.84,0,0
86795.825,342.166,-991.186,0,0
88097.45,337.513,-971.789,0,0
89399.075,328.995,-956.11,0,0
90700.7,313.28,-948.601,0,0
92002.3,304.149,-936.896,0,0
93303.9,293.265,-926.19,0,0
94605.6,285.945,-911.882,0,0
95907.2,276.557,-899.674,0,0
97208.8,275.51,-881.883,0,0
98510.4,264.356,-870.614,0,0
99812.1,259.837,-855.572,0,0
101114,255.276,-842.286,0,0
102415,249.27,-830.332,0,0
103717,246.597,-816.001,0,0
105019,246.455,-800.337,0,0
106320.175,240.562,-787.569,0,0
107621.8,232.421,-775.796,0,0
108923.425,227.583,-762.467,0,0
110225.05,221.874,-750.112,0,0
111526.675,222.098,-733.828,0,0
112828.3,218.924,-719.786,0,0
114129.925,215.48,-707.089,0,0
115431.55,212.922,-693.56,0,0
116733.175,209.241,-681.017,0,0
118034.8,207.036,-668.521,0,0
119336.425,204.057,-658.06,0,0
120638.05,202.745,-646.458,0,0
121939.675,201.379,-634.749,0,0
123241,199.229,-622.758,0,0
124543,195.702,-610.682,0,0
125845,194.339,-598.541,0,0
127146,191.683,-587.714,0,0
128448,190.559,-575.381,0,0
129749,188.633,-563.055,0,0
131051,186.599,-549.731,0,0
132353,185.866,-534.453,0,0
133654,182.821,-521.417,0,0
134956,183.085,-506.834,0,0
136258,183.357,-492.27,0,0
137559,187.115,-476.317,0,0
138860.775,187.71,-464.655,0,0
140162.4,190.427,-450.715,0,0
141464.025,192.077,-437.91,0,0
142765.65,194.287,-424.209,0,0
144067.275,196.47,-410.21,0,0
145368.9,198.802,-395.415,0,0
146670.525,201.855,-379.596,0,0
147972.15,205.636,-363.309,0,0
149273.775,209.822,-347.253,0,0
150575.4,215.424,-328.582,0,0
151877.025,223.438,-309.719,0,0
153178.65,234.056,-290.576,0,0
154480,246.747,-271.008,0,0
155782,262.636,-253.47,0,0
157084,280.774,-238.476,0,0
158385,298.499,-224.613,0,0
159687,318.497,-211.194,0,0
160988,340.8,-199.37,0,0
162290,365.343,-191.375,0,0
163592,390.994,-187.681,0,0
164893,414.44,-187.83,0,0
166195,434.854,-189.041,0,0
167497,454.914,-191.885,0,0
168798,472.663,-195.051,0,0
170100,491.221,-200.121,0,0
171401.375,508.78,-206.229,0,0
172703.0,523.748,-211.896,0,0
174004.625,537.755,-218.73,0,0
175306.25,551.463,-224.718,0,0
176607.875,564.622,-230.007,0,0
177909.5,578.688,-236.023,0,0
179211.125,591.099,-242.826,0,0
180512.75,598.055,-245.159,0,0
181814.375,614.417,-254.584,0,0
183116.0,628.473,-259.587,0,0
184417.625,643.435,-265.698,0,0
185719.25,657.417,-270.977,0,0
187021,654.985,-257.513,0,0
188322,677.245,-265.609,0,0
189624,704.343,-275.022,0,0
190926,731.403,-284.615,0,0
192227,761.238,-300.11,0,0
193529,792.514,-324.959,0,0
194831,819.808,-356.691,0,0
196132,843.543,-396.626,0,0
197434,858.097,-439.543,0,0
198735,864.829,-485.712,0,0
200037,864.729,-534.488,0,0
201339,856.036,-581.334,0,0
202640.35,838.849,-622.602,0,0
203941.975,807.806,-622.405,0,0
205243.6,783.563,-656.445,0,0
206545.225,754.866,-685.49,0,0
207846.85,724.063,-713.324,0,0
209148.475,689.351,-757.768,0,0
210450.1,652.985,-783.082,0,0
211751.725,621.361,-778.447,0,0
213053.35,591.313,-774.455,0,0
214354.975,551.58,-799.346,0,0
215656.6,516.802,-807.751,0,0
216958.225,489.471,-800.766,0,0
218259.85,475.054,-772.075,0,0
219561,437.478,-786.878,0,0
220863,412.683,-779.981,0,0
222165,394.066,-766.616,0,0
223466,379.29,-751.75,0,0
224768,379.837,-719.6,0,0
226070,362.859,-715.876,0,0
227371,353.381,-705.255,0,0
228673,348.019,-692.497,0,0
229974,344.477,-680.266,0,0
231276,337.514,-675.272,0,0
232578,337.08,-663.822,0,0
233879,336.604,-654.711,0,0
235180.95,338.176,-645.418,0,0
236482.575,338.833,-639.705,0,0
237784.2,338.875,-637.927,0,0
239085.825,341.525,-634.746,0,0
240387.45,343.996,-633.278,0,0
241689.075,344.475,-635.126,0,0
242990.7,343.793,-638.47,0,0
244292.325,343.948,-638.71,0,0
245593.95,339.913,-642.501,0,0
246895.575,335.624,-643.13,0,0
248197.2,331.281,-640.883,0,0
249498.825,328.542,-635.557,0,0
250800,334.68,-626.336,0,0
252102,340.946,-631.535,0,0
253404,346.514,-642.391,0,0
254705,346.39,-654.772,0,0
256007,339.006,-667.265,0,0
257309,324.845,-679.743,0,0
258610,311.645,-684.501,0,0
259912,295.182,-688.762,0,0
261213,283.585,-685.858,0,0
262515,267.975,-685.916,0,0
263817,255.587,-682.759,0,0
265118,247.074,-676.417,0,0
266420,236.138,-672.768,0,0
267721.55,229.453,-666.705,0,0
269023.175,220.345,-663.102,0,0
270324.8,213.913,-657.954,0,0
271626.425,205.315,-653.901,0,0
272928.05,198.177,-648.217,0,0
274229.675,191.608,-641.898,0,0
275531.3,183.739,-636.145,0,0
276832.925,177.806,-628.773,0,0
278134.55,169.807,-622.43,0,0
279436.175,163.897,-614.939,0,0
280737.8,159.959,-607.162,0,0
282039.425,157.886,-599.918,0,0
283341,157.162,-593.274,0,0
284643,157.427,-586.765,0,0
285944,153.143,-582.986,0,0
287246,154.341,-576.482,0,0
288548,148.489,-574.421,0,0
289849,147.129,-570.558,0,0
291151,144.004,-567.587,0,0
292452,142.014,-563.508,0,0
293754,138.976,-559.582,0,0
295056,134.79,-555.844,0,0
296357,132.938,-550.562,0,0
297659,131.337,-545.31,0,0
298960.525,129.193,-541.333,0,0
300262.15,127.812,-538.061,0,0
301563.775,128.132,-534.468,0,0
302865.4,125.847,-532.186,0,0
304167.025,125.149,-528.857,0,0
305468.65,122.831,-525.91,0,0
306770.275,121.441,-522.35,0,0
308071.9,119.298,-518.926,0,0
309373.525,118.641,-514.779,0,0
310675.15,118.172,-510.542,0,0
311976.775,115.485,-507.39,0,0
313278.4,113.857,-503.775,0,0
314580,109.656,-501.339,0,0
315882,108.472,-497.593,0,0
317183,108.167,-493.636,0,0
318485,107.37,-489.93,0,0
319787,104.866,-487.204,0,0
321088,103.936,-483.98,0,0
322390,102.756,-480.979,0,0
323691,100.747,-478.346,0,0
324993,99.9093,-475.23,0,0
326295,97.7556,-472.593,0,0
327596,95.8038,-469.665,0,0
328898,94.9502,-466.197,0,0
330200,92.8006,-463.304,0,0
331501.125,91.4619,-460.127,0,0
332802.75,90.4607,-456.828,0,0
334104.375,89.5237,-453.623,0,0
335406.0,88.7983,-450.452,0,0
336707.625,88.1802,-447.287,0,0
338009.25,87.6376,-444.064,0,0
339310.875,87.2995,-440.864,0,0
340612.5,86.2398,-438.024,0,0
341914.125,85.8767,-434.873,0,0
343215.75,84.0961,-432.287,0,0
344517.375,82.9719,-429.636,0,0
345819.0,82.6673,-426.647,0,0
347121,81.608,-423.984,0,0
348422,81.0247,-421.152,0,0
349724,79.8798,-418.559,0,0
351025,79.202,-415.734,0,0
352327,78.7237,-412.864,0,0
353629,77.9714,-410.059,0,0
354930,77.1727,-407.29,0,0
356232,76.235,-404.552,0,0
357534,76.1635,-401.501,0,0
358835,75.3645,-398.697,0,0
360137,75.0853,-395.705,0,0
361438,75.4111,-392.383,0,0
362740.1,74.176,-389.83,0,0
364041.725,74.1589,-386.69,0,0
365343.35,72.4947,-384.236,0,0
366644.975,72.519,-381.12,0,0
367946.6,72.1596,-378.244,0,0
369248.225,72.8824,-375.016,0,0
370549.85,72.2623,-372.405,0,0
371851.475,72.0565,-369.752,0,0
373153.1,72.4424,-367.034,0,0
374454.725,71.271,-365.15,0,0
375756.35,73.0083,-362.371,0,0
377057.975,71.7663,-360.798,0,0
378359.6,71.5948,-358.554,0,0
379661,71.0089,-356.326,0,0
380963,70.336,-353.852,0,0
382264,70.5104,-351.178,0,0
383566,70.2715,-348.865,0,0
384868,70.3207,-346.268,0,0
386169,70.1025,-343.598,0,0
387471,70.1594,-340.683,0,0
388773,68.9132,-338.28,0,0
390074,69.1786,-335.239,0,0
391376,68.6853,-332.522,0,0
392677,69.2435,-329.364,0,0
393979,69.4702,-326.391,0,0
395280.7,68.7754,-323.844,0,0
396582.325,69.4808,-320.658,0,0
397883.95,70.2738,-317.469,0,0
399185.575,70.2477,-314.719,0,0
400006.6,71.0222,-312.651,0,0

File: sample_6.csv
Frequency (Hz),Impedance (ohms),Phase (Radians),Temperature (C),Humidity (%)
10000.0,4087.63,-6819.61,0,0
11301.625,3459.82,-6384.57,0,0
12603.25,2965.18,-5979,0,0
13904.875,2568.47,-5612.66,0,0
15206.5,2246.03,-5275,0,0
16508.125,1981.45,-4971.5,0,0
17809.75,1761.89,-4695.11,0,0
19111.375,1578.99,-4444.75,0,0
20413.0,1423.03,-4218.28,0,0
21714.625,1289.16,-4010.41,0,0
23016.25,1175.4,-3818.04,0,0
24317.875,1078.34,-3646.78,0,0
25619.5,992.429,-3487.97,0,0
26921.1,917.212,-3340.3,0,0
28222.7,850.157,-3206.55,0,0
29524.4,788.281,-3077.3,0,0
30826,740.721,-2961.37,0,0
32127.6,692.088,-2851.7,0,0
33429.2,654.86,-2753.6,0,0
34730.9,612.532,-2659.42,0,0
36032.5,575.709,-2570.39,0,0
37334.1,544.476,-2483.21,0,0
38635.7,517.204,-2401.7,0,0
39937.4,497.042,-2326.29,0,0
41239,475.981,-2260.99,0,0
42540.6,450.901,-2198.28,0,0
43842.225,431.499,-2130.18,0,0
45143.85,418.65,-2071.16,0,0
46445.475,406.54,-2018.62,0,0
47747.1,395,-1969.78,0,0
49048.725,380.293,-1930.54,0,0
50350.35,356.366,-1888.07,0,0
51651.975,336.171,-1838.44,0,0
52953.6,323.238,-1790.7,0,0
54255.225,310.666,-1746.98,0,0
55556.85,300.862,-1706.98,0,0
56858.475,290.142,-1666.14,0,0
58160.1,282.737,-1630.75,0,0
59461.7,271.568,-1597.29,0,0
60763.3,260.025,-1562.62,0,0
62065,248.719,-1526.53,0,0
63366.6,246.287,-1490.34,0,0
64668.2,239.449,-1464.31,0,0
65969.8,231.892,-1434.08,0,0
67271.5,224.131,-1407.22,0,0
68573.1,215.759,-1379.25,0,0
69874.7,208.334,-1351.54,0,0
71176.3,201.314,-1324.11,0,0
72478,195.443,-1297.25,0,0
73779.6,189.919,-1271.48,0,0
75081.2,184.804,-1246.68,0,0
76382.825,179.562,-1222.28,0,0
77684.45,174.678,-1198.07,0,0
78986.075,170.238,-1174.21,0,0
80287.7,166.318,-1150.64,0,0
81589.325,163.299,-1127.24,0,0
82890.95,160.991,-1104.7,0,0
84192.575,159.35,-1082.34,0,0
85494.2,159.211,-1060.88,0,0
86795.825,159.566,-1041.02,0,0
88097.45,160.246,-1022.58,0,0
89399.075,161.803,-1005.09,0,0
90700.7,161.689,-991.592,0,0
92002.3,158.826,-975.534,0,0
93303.9,157.118,-959.656,0,0
94605.6,156.307,-942.982,0,0
95907.2,156.963,-927.555,0,0
97208.8,156.805,-915.115,0,0
98510.4,154.599,-901,0,0
99812.1,154.566,-887.34,0,0
101114,154.277,-875.798,0,0
102415,151.854,-865.024,0,0
103717,148.176,-854.772,0,0
105019,141.371,-844.028,0,0
106320.175,131.721,-827.502,0,0
107621.8,128.034,-805.707,0,0
108923.425,130.315,-786.644,0,0
110225.05,133.486,-770.326,0,0
111526.675,138.674,-755.98,0,0
112828.3,142.947,-748.444,0,0
114129.925,141.807,-739.584,0,0
115431.55,140.741,-728.076,0,0
116733.175,139.89,-720.895,0,0
118034.8,133.286,-709.833,0,0
119336.425,129.552,-693.926,0,0
120638.05,130.257,-677.808,0,0
121939.675,132.983,-665.992,0,0
123241,132.181,-654.413,0,0
124543,132.223,-641.646,0,0
125845,132.271,-629.077,0,0
127146,132.582,-615.873,0,0
128448,133.71,-601.832,0,0
129749,136.83,-588.315,0,0
131051,140.365,-575.924,0,0
132353,144.37,-564.089,0,0
133654,148.905,-553.468,0,0
134956,153.211,-543.586,0,0
136258,157.757,-534.763,0,0
137559,161.468,-527.703,0,0
138860.775,163.259,-521.174,0,0
140162.4,163.174,-513.383,0,0
141464.025,163.691,-504.529,0,0
142765.65,162.868,-495.753,0,0
144067.275,162.881,-483.774,0,0
145368.9,165.321,-473.238,0,0
146670.525,166.135,-463.827,0,0
147972.15,165.46,-453.169,0,0
149273.775,165.373,-439.565,0,0
150575.4,167.598,-425.462,0,0
151877.025,170.957,-410.695,0,0
153178.65,177.757,-397.405,0,0
154480,182.483,-386.297,0,0
155782,187.554,-372.793,0,0
157084,195.322,-361.692,0,0
158385,200.45,-352.321,0,0
159687,204.545,-341.162,0,0
160988,208.749,-329.205,0,0
162290,213.278,-316.149,0,0
163592,218.879,-302.371,0,0
164893,223.875,-288.944,0,0
166195,228.349,-272.84,0,0
167497,234.716,-254.152,0,0
168798,244.083,-234.473,0,0
170100,255.089,-214.968,0,0
171401.375,267.251,-194.771,0,0
172703.0,280.813,-172.518,0,0
174004.625,297.439,-148.229,0,0
175306.25,318.405,-122.453,0,0
176607.875,344.215,-96.0892,0,0
177909.5,375.707,-70.2607,0,0
179211.125,413.041,-45.9186,0,0
180512.75,455.935,-25.6178,0,0
181814.375,501.889,-8.10721,0,0
183116.0,552.385,7.84831,0,0
184417.625,609.584,22.6546,0,0
185719.25,676.9,34.8063,0,0
187021,758.279,39.6513,0,0
188322,854.133,29.3854,0,0
189624,961.761,-5.60387,0,0
190926,1069.67,-73.2322,0,0
192227,1165.5,-174.131,0,0
193529,1235.69,-304.19,0,0
194831,1270.33,-452.518,0,0
196132,1264.64,-605.631,0,0
197434,1219.27,-748.516,0,0
198735,1143.64,-867.928,0,0
200037,1050.33,-959.253,0,0
201339,947.263,-1022,0,0
202640.35,845.619,-1057.1,0,0
203941.975,752.942,-1071.09,0,0
205243.6,670.605,-1071.32,0,0
206545.225,598.703,-1062,0,0
207846.85,536.043,-1046.02,0,0
209148.475,482.314,-1025.94,0,0
210450.1,436.16,-1004.06,0,0
211751.725,394.985,-980.543,0,0
213053.35,360.338,-954.94,0,0
214354.975,331.177,-929.856,0,0
215656.6,306.095,-904.741,0,0
216958.225,285.164,-880.389,0,0
218259.85,267.257,-856.945,0,0
219561,251.813,-834.302,0,0
220863,238.532,-812.167,0,0
222165,227.428,-790.306,0,0
223466,218.517,-768.79,0,0
224768,212.265,-747.716,0,0
226070,208.714,-727.794,0,0
227371,206.93,-709.799,0,0
228673,205.733,-693.061,0,0
229974,205.648,-676.779,0,0
231276,207.163,-661.083,0,0
232578,210.362,-646.256,0,0
233879,215.366,-632.607,0,0
235180.95,222.079,-620.513,0,0
236482.575,230.377,-610.618,0,0
237784.2,239.799,-602.964,0,0
239085.825,250.028,-597.858,0,0
240387.45,260.435,-595.756,0,0
241689.075,270.523,-596.464,0,0
242990.7,279.41,-599.967,0,0
244292.325,286.915,-606.034,0,0
245593.95,291.564,-614.668,0,0
246895.575,292.642,-623.495,0,0
248197.2,291.847,-631.655,0,0
249498.825,289.673,-638.717,0,0
250800,288.546,-645.817,0,0
252102,286.073,-656.06,0,0
253404,280.03,-667.552,0,0
254705,269.193,-678.47,0,0
256007,255.102,-685.867,0,0
257309,239.867,-689.527,0,0
258610,224.929,-690.047,0,0
259912,210.835,-688.303,0,0
261213,197.839,-684.846,0,0
262515,185.998,-680.13,0,0
263817,175.477,-674.524,0,0
265118,165.963,-668.479,0,0
266420,157.47,-662.166,0,0
267721.55,149.778,-655.63,0,0
269023.175,142.813,-649.075,0,0
270324.8,136.354,-642.591,0,0
271626.425,130.442,-636.014,0,0
272928.05,124.977,-629.437,0,0
274229.675,119.957,-622.946,0,0
275531.3,115.388,-616.427,0,0
276832.925,111.087,-609.858,0,0
278134.55,107.16,-603.29,0,0
279436.175,103.766,-596.521,0,0
280737.8,101.258,-589.756,0,0
282039.425,99.4136,-584.01,0,0
283341,97.1547,-578.819,0,0
284643,95.0467,-573.34,0,0
285944,93.336,-568.212,0,0
287246,91.7171,-563.799,0,0
288548,89.5101,-559.538,0,0
289849,87.2774,-555.026,0,0
291151,85.2624,-550.474,0,0
292452,83.4195,-546.155,0,0
293754,81.3423,-541.935,0,0
295056,79.0828,-537.531,0,0
296357,76.9065,-532.808,0,0
297659,75.3176,-527.775,0,0
298960.525,74.2343,-523.181,0,0
300262.15,73.2122,-519.11,0,0
301563.775,71.735,-515.127,0,0
302865.4,70.3267,-511.114,0,0
304167.025,69.0846,-506.887,0,0
305468.65,68.0603,-502.85,0,0
306770.275,67.1834,-499.09,0,0
308071.9,65.9884,-495.328,0,0
309373.525,64.9204,-491.56,0,0
310675.15,64.0327,-487.849,0,0
311976.775,62.9586,-484.248,0,0
313278.4,62.0303,-480.626,0,0
314580,61.0738,-477.005,0,0
315882,60.1614,-473.445,0,0
317183,59.2707,-469.963,0,0
318485,58.4698,-466.445,0,0
319787,57.6308,-462.917,0,0
321088,56.9967,-459.423,0,0
322390,56.291,-456.04,0,0
323691,55.7234,-452.755,0,0
324993,55.0295,-449.467,0,0
326295,54.3082,-446.264,0,0
327596,53.6811,-442.917,0,0
328898,53.0346,-439.587,0,0
330200,52.5583,-436.281,0,0
331501.125,52.1616,-433.054,0,0
332802.75,51.789,-429.944,0,0
334104.375,51.3448,-426.811,0,0
335406.0,51.0028,-423.637,0,0
336707.625,50.6592,-420.596,0,0
338009.25,50.3486,-417.532,0,0
339310.875,50.0443,-414.559,0,0
340612.5,49.8427,-411.475,0,0
341914.125,49.669,-408.464,0,0
343215.75,49.6365,-405.535,0,0
344517.375,49.5541,-402.771,0,0
345819.0,49.4231,-399.947,0,0
347121,49.3621,-397.086,0,0
348422,49.4235,-394.334,0,0
349724,49.5048,-391.659,0,0
351025,49.6368,-389.092,0,0
352327,49.7424,-386.639,0,0
353629,49.8185,-384.262,0,0
354930,49.846,-381.951,0,0
356232,49.6668,-379.721,0,0
357534,49.4845,-377.403,0,0
358835,49.3296,-375.051,0,0
360137,49.0673,-372.579,0,0
361438,48.9316,-370.185,0,0
362740.1,48.7517,-367.724,0,0
364041.725,48.6106,-365.28,0,0
365343.35,48.5869,-362.833,0,0
366644.975,48.5598,-360.399,0,0
367946.6,48.5866,-358.011,0,0
369248.225,48.5406,-355.656,0,0
370549.85,48.5672,-353.276,0,0
371851.475,48.6609,-350.943,0,0
373153.1,48.8103,-348.726,0,0
374454.725,48.824,-346.708,0,0
375756.35,48.6131,-344.643,0,0
377057.975,48.3099,-342.428,0,0
378359.6,48.0752,-340.049,0,0
379661,47.8968,-337.612,0,0
380963,47.7436,-335.094,0,0
382264,47.7598,-332.469,0,0
383566,48.0261,-330.061,0,0
384868,48.025,-327.85,0,0
386169,47.9714,-325.431,0,0
387471,47.9298,-323.001,0,0
388773,47.9454,-320.549,0,0
390074,47.9915,-317.994,0,0
391376,48.0755,-315.443,0,0
392677,48.1825,-312.923,0,0
393979,48.3161,-310.341,0,0
395280.7,48.5022,-307.73,0,0
396582.325,48.7297,-305.105,0,0
397883.95,48.9946,-302.43,0,0
399185.575,49.2928,-299.749,0,0
400006.6,49.5135,-298.021,0,0