Folder: ML_Dmg_Mehdi_Dataset/Accelerated corrosion test data/2025-10-05_06-00-04 (part 2)

File: sample_3.csv
Frequency (Hz),Impedance (ohms),Phase (Radians),Temperature (C),Humidity (%)
10000.0,250.855,-11781.4,0,0
11301.625,223.456,-10435.2,0,0
12603.25,202.548,-9365.61,0,0
13904.875,184.819,-8493.7,0,0
15206.5,172.579,-7764.85,0,0
16508.125,161.631,-7170.37,0,0
17809.75,156.648,-6641.1,0,0
19111.375,146.234,-6190,0,0
20413.0,156.573,-5787.97,0,0
21714.625,137.959,-5470.11,0,0
23016.25,127.712,-5164.13,0,0
24317.875,118.748,-4884.52,0,0
25619.5,113.968,-4638.37,0,0
26921.1,107.901,-4407.67,0,0
28222.7,103.667,-4202.15,0,0
29524.4,109.829,-4022.66,0,0
30826,100.597,-3852.21,0,0
32127.6,100.95,-3688.39,0,0
33429.2,99.544,-3562.89,0,0
34730.9,88.165,-3425.87,0,0
36032.5,83.1044,-3298.38,0,0
37334.1,80.5814,-3180.4,0,0
38635.7,77.7122,-3070.46,0,0
39937.4,75.7014,-2968.27,0,0
41239,74.1209,-2871.28,0,0
42540.6,73.3405,-2781.68,0,0
43842.225,71.6547,-2696.09,0,0
45143.85,70.8315,-2616.69,0,0
46445.475,70.1914,-2541.09,0,0
47747.1,69.9234,-2468.3,0,0
49048.725,68.6453,-2403.06,0,0
50350.35,66.6613,-2338.13,0,0
51651.975,66.1905,-2275.3,0,0
52953.6,66.5874,-2215.64,0,0
54255.225,69.1704,-2160.93,0,0
55556.85,66.8632,-2113.44,0,0
56858.475,61.7319,-2060.74,0,0
58160.1,61.1787,-2008.71,0,0
59461.7,61.786,-1959.58,0,0
60763.3,63.087,-1912.79,0,0
62065,65.289,-1868.44,0,0
63366.6,68.8405,-1824.77,0,0
64668.2,77.2669,-1782.75,0,0
65969.8,91.394,-1757.28,0,0
67271.5,76.5047,-1732.22,0,0
68573.1,76.4503,-1694.9,0,0
69874.7,76.0012,-1665.55,0,0
71176.3,70.7079,-1635.33,0,0
72478,69.2305,-1602.51,0,0
73779.6,67.6449,-1574.19,0,0
75081.2,64.1031,-1545.88,0,0
76382.825,60.5699,-1516.72,0,0
77684.45,58.1113,-1487.83,0,0
78986.075,55.8865,-1459.29,0,0
80287.7,54.3874,-1431.35,0,0
81589.325,53.2993,-1404.1,0,0
82890.95,52.823,-1377.64,0,0
84192.575,52.5421,-1352.05,0,0
85494.2,52.4887,-1326.95,0,0
86795.825,52.6405,-1302.72,0,0
88097.45,53.2146,-1278.69,0,0
89399.075,54.4226,-1254.96,0,0
90700.7,56.8957,-1232.91,0,0
92002.3,59.4131,-1212.12,0,0
93303.9,62.835,-1193.37,0,0
94605.6,64.2166,-1178.82,0,0
95907.2,58.6046,-1161.69,0,0
97208.8,57.6126,-1140.69,0,0
98510.4,57.5041,-1121.54,0,0
99812.1,56.6966,-1103.02,0,0
101114,55.9774,-1083.43,0,0
102415,57.0459,-1062.92,0,0
103717,60.9488,-1045.06,0,0
105019,64.6107,-1031.22,0,0
106320.175,63.5102,-1018.11,0,0
107621.8,60.476,-1002.28,0,0
108923.425,58.6365,-984.426,0,0
110225.05,58.6707,-965.569,0,0
111526.675,61.0027,-947.783,0,0
112828.3,63.1168,-931.639,0,0
114129.925,64.7137,-915.489,0,0
115431.55,66.8981,-898.726,0,0
116733.175,70.6864,-882.124,0,0
118034.8,76.3144,-866.431,0,0
119336.425,83.1569,-854.749,0,0
120638.05,88.4468,-848.329,0,0
121939.675,86.3483,-839.63,0,0
123241,86.6667,-826.49,0,0
124543,88.2011,-815.298,0,0
125845,89.3133,-805.04,0,0
127146,88.6072,-795.325,0,0
128448,86.9396,-784.38,0,0
129749,85.1292,-771.207,0,0
131051,86.207,-758.016,0,0
132353,85.7748,-746.902,0,0
133654,85.1192,-734.793,0,0
134956,83.8149,-722.341,0,0
136258,82.5896,-708.647,0,0
137559,82.4546,-693.676,0,0
138860.775,83.8294,-680.219,0,0
140162.4,83.0088,-666.863,0,0
141464.025,82.9327,-652.452,0,0
142765.65,82.3499,-636.783,0,0
144067.275,82.5578,-619.632,0,0
145368.9,84.1632,-601.773,0,0
146670.525,86.7327,-582.937,0,0
147972.15,91.18,-563.126,0,0
149273.775,97.6594,-543.03,0,0
150575.4,107.842,-522.496,0,0
151877.025,120.7,-505.599,0,0
153178.65,133.451,-491.893,0,0
154480,143.57,-479.425,0,0
155782,152.156,-463.497,0,0
157084,163.661,-446.748,0,0
158385,179.295,-433.805,0,0
159687,186.327,-419.173,0,0
160988,200.246,-391.391,0,0
162290,227.025,-366.087,0,0
163592,264.315,-346.784,0,0
164893,310.814,-336.6,0,0
166195,364.783,-348.298,0,0
167497,403.796,-380.828,0,0
168798,424.26,-420.158,0,0
170100,427.058,-459.672,0,0
171401.375,409.885,-478.63,0,0
172703.0,404.793,-481.997,0,0
174004.625,411.848,-487.961,0,0
175306.25,417.269,-506.844,0,0
176607.875,408.192,-528.267,0,0
177909.5,389.188,-543.041,0,0
179211.125,364.584,-536.806,0,0
180512.75,358.033,-522.426,0,0
181814.375,362.08,-517.914,0,0
183116.0,355.674,-525.084,0,0
184417.625,341.853,-521.379,0,0
185719.25,328.487,-509.045,0,0
187021,321.775,-486.528,0,0
188322,327.755,-467.093,0,0
189624,333.726,-452.954,0,0
190926,343.391,-438.116,0,0
192227,352.782,-424.218,0,0
193529,364.3,-407.614,0,0
194831,387.397,-388.879,0,0
196132,418.413,-386.513,0,0
197434,442.368,-396.797,0,0
198735,454.213,-404.218,0,0
200037,463.979,-405.732,0,0
201339,470.513,-404.76,0,0
202640.35,485.611,-395.018,0,0
203941.975,514.829,-390.902,0,0
205243.6,544.832,-401.292,0,0
206545.225,560.74,-419.177,0,0
207846.85,577.204,-421.163,0,0
209148.475,606.47,-427.593,0,0
210450.1,640.106,-447.383,0,0
211751.725,668.008,-476.88,0,0
213053.35,690.538,-512.149,0,0
214354.975,707.082,-554.084,0,0
215656.6,715.99,-598.764,0,0
216958.225,715.9,-648.311,0,0
218259.85,701.414,-694.115,0,0
219561,680.05,-732.974,0,0
220863,663.03,-768.356,0,0
222165,630.865,-807.121,0,0
223466,587.167,-833.77,0,0
224768,544.27,-837.831,0,0
226070,519.874,-834.239,0,0
227371,503.332,-842.251,0,0
228673,479.239,-854.27,0,0
229974,450.233,-861.645,0,0
231276,420.92,-863.297,0,0
232578,394.503,-860.455,0,0
233879,370.482,-856.152,0,0
235180.95,347.952,-851.768,0,0
236482.575,324.194,-847.181,0,0
237784.2,300.083,-837.95,0,0
239085.825,276.488,-824.571,0,0
240387.45,258.278,-806.341,0,0
241689.075,245.089,-788.578,0,0
242990.7,236.028,-770.496,0,0
244292.325,230.934,-754.997,0,0
245593.95,226.63,-742.893,0,0
246895.575,221.719,-731.528,0,0
248197.2,217.554,-719.73,0,0
249498.825,216.615,-708.38,0,0
250800,215.636,-702.028,0,0
252102,210.136,-696.644,0,0
253404,201.8,-686.722,0,0
254705,196.811,-671.457,0,0
256007,197.135,-654.719,0,0
257309,204.595,-640.16,0,0
258610,213.878,-631.899,0,0
259912,224.273,-624.322,0,0
261213,238.819,-623.914,0,0
262515,250.86,-634.486,0,0
263817,251.163,-649.239,0,0
265118,242.632,-661.427,0,0
266420,227.903,-666.56,0,0
267721.55,213.074,-663.039,0,0
269023.175,202.918,-654.494,0,0
270324.8,197.497,-644.937,0,0
271626.425,195.027,-635.588,0,0
272928.05,195.389,-628.052,0,0
274229.675,195.029,-621.614,0,0
275531.3,197.304,-613.837,0,0
276832.925,204.147,-608.43,0,0
278134.55,212.383,-610.009,0,0
279436.175,216.072,-617.337,0,0
280737.8,212.974,-624.875,0,0
282039.425,206.683,-629.357,0,0
283341,198.239,-631.339,0,0
284643,189.752,-629.849,0,0
285944,181.894,-626.075,0,0
287246,175.887,-619.329,0,0
288548,174.652,-612.006,0,0
289849,175.22,-608.875,0,0
291151,173.894,-607.248,0,0
292452,170.883,-605.142,0,0
293754,168.859,-600.78,0,0
295056,170.028,-596.807,0,0
296357,172.507,-596.851,0,0
297659,172.322,-599.857,0,0
298960.525,168.574,-603.102,0,0
300262.15,162.926,-604.588,0,0
301563.775,156.361,-604.532,0,0
302865.4,149.434,-602.58,0,0
304167.025,143.262,-599.099,0,0
305468.65,137.893,-594.672,0,0
306770.275,133.601,-589.483,0,0
308071.9,131.135,-584.284,0,0
309373.525,129.594,-580.774,0,0
310675.15,126.898,-578.383,0,0
311976.775,123.155,-575.488,0,0
313278.4,118.587,-571.463,0,0
314580,114.845,-565.259,0,0
315882,113.689,-558.498,0,0
317183,114.627,-553.274,0,0
318485,115.47,-550.167,0,0
319787,115.332,-547.752,0,0
321088,115.248,-544.939,0,0
322390,115.857,-542.807,0,0
323691,116.352,-542.588,0,0
324993,114.924,-543.398,0,0
326295,111.83,-543.821,0,0
327596,107.535,-543.072,0,0
328898,103.301,-541.024,0,0
330200,99.3332,-538.474,0,0
331501.125,95.1489,-535.76,0,0
332802.75,90.7226,-532.206,0,0
334104.375,86.2705,-527.834,0,0
335406.0,82.5289,-522.319,0,0
336707.625,79.7608,-516.177,0,0
338009.25,77.8583,-510.21,0,0
339310.875,76.6034,-503.822,0,0
340612.5,76.717,-497.007,0,0
341914.125,78.6064,-491.289,0,0
343215.75,81.265,-487.551,0,0
344517.375,82.874,-485.559,0,0
345819.0,83.0205,-483.897,0,0
347121,82.6169,-481.607,0,0
348422,81.881,-478.937,0,0
349724,81.5509,-475.536,0,0
351025,82.3643,-472.17,0,0
352327,83.7915,-470.316,0,0
353629,83.9378,-469.851,0,0
354930,82.3814,-468.924,0,0
356232,80.5748,-466.657,0,0
357534,78.9991,-463.844,0,0
358835,77.7461,-460.454,0,0
360137,77.3666,-456.927,0,0
361438,77.3825,-453.789,0,0
362740.1,77.351,-450.836,0,0
364041.725,77.9399,-447.645,0,0
365343.35,79.3916,-445.551,0,0
366644.975,79.9595,-445.28,0,0
367946.6,78.2498,-444.834,0,0
369248.225,75.4999,-442.194,0,0
370549.85,74.9462,-437.408,0,0
371851.475,76.8038,-434.561,0,0
373153.1,77.3214,-434.07,0,0
374454.725,75.7552,-433.052,0,0
375756.35,73.9094,-430.391,0,0
377057.975,73.007,-426.656,0,0
378359.6,73.4196,-423.2,0,0
379661,74.3174,-420.44,0,0
380963,75.1282,-418.566,0,0
382264,75.6029,-417.159,0,0
383566,75.516,-415.991,0,0
384868,74.589,-414.711,0,0
386169,73.2493,-412.716,0,0
387471,72.1011,-409.979,0,0
388773,71.1959,-406.897,0,0
390074,70.7788,-403.113,0,0
391376,71.3939,-399.126,0,0
392677,73.1003,-395.489,0,0
393979,75.5791,-392.941,0,0
395280.7,78.0257,-391.592,0,0
396582.325,80.055,-391.358,0,0
397883.95,81.1189,-391.792,0,0
399185.575,80.9747,-392.387,0,0
400006.6,80.4176,-392.491,0,0

File: sample_4.csv
Frequency (Hz),Impedance (ohms),Phase (Radians),Temperature (C),Humidity (%)
10000.0,262.336,-11857.8,0,0
11301.625,233.674,-10505.2,0,0
12603.25,211.686,-9424,0,0
13904.875,192.279,-8545.07,0,0
15206.5,180.385,-7821.57,0,0
16508.125,185.268,-7204.37,0,0
17809.75,155.597,-6699.94,0,0
19111.375,144.824,-6244.51,0,0
20413.0,140.807,-5845.32,0,0
21714.625,145.005,-5498.57,0,0
23016.25,124.998,-5200.64,0,0
24317.875,116.265,-4916.65,0,0
25619.5,111.9,-4663.33,0,0
26921.1,106.063,-4434.47,0,0
28222.7,119.129,-4229.36,0,0
29524.4,112.441,-4052.78,0,0
30826,98.7601,-3880.64,0,0
32127.6,99.2038,-3720.53,0,0
33429.2,89.7466,-3580.16,0,0
34730.9,84.9337,-3441.99,0,0
36032.5,81.9631,-3314.81,0,0
37334.1,79.5051,-3196.25,0,0
38635.7,77.0575,-3084.22,0,0
39937.4,76.6972,-2978.8,0,0
41239,79.3054,-2883.96,0,0
42540.6,78.4208,-2796.21,0,0
43842.225,73.7402,-2713.07,0,0
45143.85,71.4785,-2632.27,0,0
46445.475,70.2784,-2555.62,0,0
47747.1,70.1667,-2485.43,0,0
49048.725,66.1706,-2416.54,0,0
50350.35,64.5241,-2349.15,0,0
51651.975,63.8991,-2284.47,0,0
52953.6,65.5777,-2221.76,0,0
54255.225,73.566,-2165.41,0,0
55556.85,71.7817,-2122.14,0,0
56858.475,65.8741,-2068.77,0,0
58160.1,66.6177,-2016.38,0,0
59461.7,70.7259,-1965.72,0,0
60763.3,79.9008,-1928,0,0
62065,69.6696,-1894.69,0,0
63366.6,64.4955,-1849.24,0,0
64668.2,64.3911,-1805.75,0,0
65969.8,66.2961,-1765.71,0,0
67271.5,70.1915,-1729.52,0,0
68573.1,73.7355,-1700.58,0,0
69874.7,66.2244,-1670.41,0,0
71176.3,65.2418,-1636.69,0,0
72478,59.171,-1605.2,0,0
73779.6,57.7106,-1568.64,0,0
75081.2,59.8331,-1536.03,0,0
76382.825,62.3408,-1507.05,0,0
77684.45,65.0408,-1479.28,0,0
78986.075,64.0283,-1456.91,0,0
80287.7,60.9212,-1430.12,0,0
81589.325,60.3715,-1404.12,0,0
82890.95,59.1097,-1379.15,0,0
84192.575,57.9022,-1354.44,0,0
85494.2,57.1015,-1330.14,0,0
86795.825,56.3737,-1306.6,0,0
88097.45,55.0982,-1283.96,0,0
89399.075,53.5742,-1259.78,0,0
90700.7,53.5415,-1236.66,0,0
92002.3,53.8373,-1213.69,0,0
93303.9,55.105,-1192.92,0,0
94605.6,53.753,-1172.6,0,0
95907.2,53.0289,-1150.2,0,0
97208.8,53.8902,-1128.62,0,0
98510.4,55.115,-1107.31,0,0
99812.1,57.7183,-1086.64,0,0
101114,61.7702,-1068.03,0,0
102415,60.8998,-1053.49,0,0
103717,57.9078,-1031.13,0,0
105019,61.5421,-1007.5,0,0
106320.175,67.8869,-987.23,0,0
107621.8,74.3866,-969.193,0,0
108923.425,82.4789,-952.166,0,0
110225.05,90.4359,-939.136,0,0
111526.675,96.7293,-927.722,0,0
112828.3,102.316,-917.481,0,0
114129.925,106.322,-908.739,0,0
115431.55,108.711,-900.709,0,0
116733.175,108.597,-892.725,0,0
118034.8,106.595,-882.382,0,0
119336.425,107.749,-868.727,0,0
120638.05,112.596,-863.737,0,0
121939.675,105.718,-857.701,0,0
123241,100.646,-845.479,0,0
124543,97.5531,-832.926,0,0
125845,95.1861,-820.52,0,0
127146,92.1078,-809.78,0,0
128448,87.2773,-797.833,0,0
129749,80.759,-783.268,0,0
131051,75.9726,-765.686,0,0
132353,73.3518,-747.055,0,0
133654,72.4511,-728.188,0,0
134956,73.0301,-709.242,0,0
136258,75.2172,-690.894,0,0
137559,78.0006,-673.52,0,0
138860.775,79.8322,-655.877,0,0
140162.4,83.0319,-636.985,0,0
141464.025,88.0879,-617.946,0,0
142765.65,94.0843,-599.837,0,0
144067.275,100.621,-581.569,0,0
145368.9,108.305,-563.06,0,0
146670.525,117.476,-544.442,0,0
147972.15,128.402,-526.398,0,0
149273.775,140.75,-508.128,0,0
150575.4,155.803,-490.377,0,0
151877.025,174.518,-474.272,0,0
153178.65,196.227,-462.097,0,0
154480,217.657,-456.86,0,0
155782,234.748,-452.933,0,0
157084,250.292,-451.115,0,0
158385,264.635,-445.421,0,0
159687,285.403,-442.552,0,0
160988,303.504,-449.669,0,0
162290,309.922,-456.839,0,0
163592,314.604,-455.535,0,0
164893,323.991,-448.184,0,0
166195,340.018,-442.926,0,0
167497,365.21,-440.832,0,0
168798,394.365,-456.893,0,0
170100,410.8,-486.388,0,0
171401.375,408.312,-524.425,0,0
172703.0,383.924,-550.176,0,0
174004.625,350.289,-556.548,0,0
175306.25,322.645,-545.366,0,0
176607.875,304.42,-524.49,0,0
177909.5,297.332,-500.982,0,0
179211.125,296.989,-480.406,0,0
180512.75,299.936,-461.571,0,0
181814.375,303.913,-444.856,0,0
183116.0,307.147,-427.905,0,0
184417.625,311.285,-407.252,0,0
185719.25,319.197,-383.826,0,0
187021,332.03,-358.354,0,0
188322,350.035,-331.675,0,0
189624,375.114,-304.461,0,0
190926,408.794,-278.378,0,0
192227,451.416,-257.243,0,0
193529,501.447,-243.904,0,0
194831,555.998,-239.217,0,0
196132,614.582,-243.309,0,0
197434,679.336,-256.495,0,0
198735,750.601,-288.13,0,0
200037,818.187,-345.608,0,0
201339,865.232,-425.64,0,0
202640.35,883.65,-514.107,0,0
203941.975,879.072,-593.494,0,0
205243.6,861.561,-666.496,0,0
206545.225,832.391,-731.431,0,0
207846.85,795.37,-790.572,0,0
209148.475,738.851,-837.736,0,0
210450.1,680.433,-858.553,0,0
211751.725,631.568,-865.259,0,0
213053.35,592.94,-862.289,0,0
214354.975,565.862,-855.739,0,0
215656.6,550.289,-855.857,0,0
216958.225,531.673,-863.546,0,0
218259.85,509.884,-869.774,0,0
219561,488.165,-873.749,0,0
220863,466.81,-878.989,0,0
222165,442.947,-882.49,0,0
223466,420.15,-882.695,0,0
224768,397.961,-883.771,0,0
226070,373.114,-884.937,0,0
227371,344.887,-880.841,0,0
228673,317.026,-871.927,0,0
229974,292.097,-856.2,0,0
231276,273.881,-837.722,0,0
232578,259.965,-820.15,0,0
233879,249.401,-802.705,0,0
235180.95,241.594,-786.918,0,0
236482.575,235.52,-772.728,0,0
237784.2,230.396,-758.506,0,0
239085.825,228.71,-745.772,0,0
240387.45,227.591,-736.283,0,0
241689.075,225.698,-729.135,0,0
242990.7,222.497,-723.114,0,0
244292.325,217.671,-717.402,0,0
245593.95,210.843,-710.141,0,0
246895.575,205.008,-700.233,0,0
248197.2,201.916,-689.741,0,0
249498.825,199.683,-681.429,0,0
250800,196.724,-673.139,0,0
252102,193.177,-665.728,0,0
253404,186.771,-656.161,0,0
254705,182.52,-642.127,0,0
256007,180.677,-626.17,0,0
257309,183.823,-608.136,0,0
258610,191.781,-590.766,0,0
259912,205.819,-574.97,0,0
261213,225.06,-565.263,0,0
262515,245.617,-563.006,0,0
263817,266.242,-566.666,0,0
265118,284.246,-578.027,0,0
266420,298.095,-594.702,0,0
267721.55,303.123,-617.384,0,0
269023.175,299.916,-638.021,0,0
270324.8,287.073,-656.192,0,0
271626.425,273.843,-662.108,0,0
272928.05,265.703,-669.801,0,0
274229.675,253.554,-678.328,0,0
275531.3,236.667,-685.413,0,0
276832.925,215.41,-685.083,0,0
278134.55,196.525,-675.748,0,0
279436.175,185.35,-660.626,0,0
280737.8,183.354,-648.04,0,0
282039.425,181.904,-641.368,0,0
283341,180.132,-633.517,0,0
284643,180.92,-630.218,0,0
285944,178.245,-628.066,0,0
287246,172.163,-625.09,0,0
288548,165.843,-615.859,0,0
289849,166.32,-602.135,0,0
291151,176.164,-592.566,0,0
292452,188.285,-592.461,0,0
293754,197.419,-600.06,0,0
295056,198.654,-612.977,0,0
296357,190.827,-623.931,0,0
297659,179.227,-628.174,0,0
298960.525,169.105,-627.694,0,0
300262.15,160.76,-626.015,0,0
301563.775,152.475,-623.742,0,0
302865.4,144.623,-619.516,0,0
304167.025,137.955,-614.597,0,0
305468.65,132.496,-608.702,0,0
306770.275,128.67,-602.589,0,0
308071.9,126.303,-597.393,0,0
309373.525,123.981,-593.492,0,0
310675.15,121.204,-590.016,0,0
311976.775,117.753,-586.361,0,0
313278.4,114.662,-581.819,0,0
314580,112.465,-577.198,0,0
315882,111.132,-573.07,0,0
317183,110.212,-569.932,0,0
318485,108.937,-568.091,0,0
319787,106.506,-566.978,0,0
321088,102.655,-566.179,0,0
322390,96.5432,-564.451,0,0
323691,89.4818,-559.601,0,0
324993,84.8339,-552.34,0,0
326295,81.9267,-545.726,0,0
327596,79.3841,-539.075,0,0
328898,77.6926,-532.109,0,0
330200,77.4362,-524.967,0,0
331501.125,78.6763,-519.162,0,0
332802.75,79.8648,-515.197,0,0
334104.375,79.9901,-512.279,0,0
335406.0,78.7035,-509.071,0,0
336707.625,76.8518,-504.927,0,0
338009.25,75.2999,-499.488,0,0
339310.875,74.9434,-493.134,0,0
340612.5,76.199,-486.841,0,0
341914.125,78.9891,-481.039,0,0
343215.75,83.4627,-477.329,0,0
344517.375,87.2761,-476.481,0,0
345819.0,89.0853,-476.906,0,0
347121,89.1563,-477.287,0,0
348422,87.9408,-477.07,0,0
349724,86.1257,-475.91,0,0
351025,83.9431,-473.86,0,0
352327,82.0131,-470.84,0,0
353629,80.7497,-466.949,0,0
354930,80.9402,-463.187,0,0
356232,81.2329,-460.748,0,0
357534,80.8807,-458.715,0,0
358835,79.438,-456.437,0,0
360137,77.9294,-452.571,0,0
361438,77.8514,-448.226,0,0
362740.1,78.4846,-444.221,0,0
364041.725,79.5147,-441.079,0,0
365343.35,79.674,-438.275,0,0
366644.975,79.573,-434.304,0,0
367946.6,80.8227,-429.5,0,0
369248.225,83.825,-424.82,0,0
370549.85,88.2738,-421.472,0,0
371851.475,93.8136,-420.169,0,0
373153.1,98.8035,-421.903,0,0
374454.725,100.88,-425.473,0,0
375756.35,100.507,-428.04,0,0
377057.975,99.5966,-429.423,0,0
378359.6,98.4103,-430.26,0,0
379661,97.184,-430.659,0,0
380963,95.7185,-430.786,0,0
382264,94.3067,-430.063,0,0
383566,94.627,-430.052,0,0
384868,93.2799,-432.689,0,0
386169,88.8205,-434.3,0,0
387471,83.2438,-433.086,0,0
388773,78.9804,-429.024,0,0
390074,77.9293,-424.544,0,0
391376,78.6192,-422.473,0,0
392677,77.7284,-423.004,0,0
393979,73.7742,-423,0,0
395280.7,69.0804,-420.468,0,0
396582.325,65.4438,-416.256,0,0
397883.95,62.9684,-411.497,0,0
399185.575,61.2298,-406.717,0,0
400006.6,60.4953,-403.586,0,0