Folder: ML_Dmg_Mehdi_Dataset/Accelerated corrosion test data/2025-10-09_18-00-04 (part 4)

File: sample_8.csv
Frequency (Hz),Impedance (ohms),Phase (Radians),Temperature (C),Humidity (%)
10000.0,312.326,-10944.1,0,0
11301.625,276.903,-9699.32,0,0
12603.25,254.691,-8710.31,0,0
13904.875,226.483,-7911.27,0,0
15206.5,206.172,-7238.7,0,0
16508.125,189.919,-6673.68,0,0
17809.75,177.025,-6188.63,0,0
19111.375,168.332,-5767.7,0,0
20413.0,160.595,-5405.82,0,0
21714.625,150.863,-5086.07,0,0
23016.25,145.082,-4803.15,0,0
24317.875,134.339,-4547.58,0,0
25619.5,127.773,-4315.8,0,0
26921.1,122.498,-4105.19,0,0
28222.7,119.391,-3914.3,0,0
29524.4,117.053,-3742.09,0,0
30826,115.761,-3584.93,0,0
32127.6,113.575,-3439.68,0,0
33429.2,115.511,-3305.79,0,0
34730.9,112.961,-3189.25,0,0
36032.5,106.15,-3079.75,0,0
37334.1,98.5227,-2972.84,0,0
38635.7,91.7365,-2871.19,0,0
39937.4,86.2694,-2774.87,0,0
41239,84.2955,-2684.33,0,0
42540.6,81.9998,-2599.49,0,0
43842.225,81.3891,-2521.43,0,0
45143.85,78.2597,-2447.34,0,0
46445.475,75.7554,-2376.46,0,0
47747.1,74.2838,-2309.23,0,0
49048.725,72.433,-2246.51,0,0
50350.35,70.656,-2185.72,0,0
51651.975,69.7906,-2127.77,0,0
52953.6,69.3443,-2073.6,0,0
54255.225,68.0028,-2023.6,0,0
55556.85,65.061,-1974.11,0,0
56858.475,62.923,-1925.23,0,0
58160.1,62.05,-1878.49,0,0
59461.7,61.9085,-1834.88,0,0
60763.3,60.486,-1792.14,0,0
62065,60.363,-1751.28,0,0
63366.6,60.9233,-1711.51,0,0
64668.2,62.3165,-1675.7,0,0
65969.8,61.1419,-1641.52,0,0
67271.5,58.9608,-1606.97,0,0
68573.1,57.9724,-1572.83,0,0
69874.7,57.9179,-1539.61,0,0
71176.3,58.1528,-1508.29,0,0
72478,58.3861,-1478.77,0,0
73779.6,57.4421,-1449.54,0,0
75081.2,56.9794,-1421.04,0,0
76382.825,56.9773,-1393.04,0,0
77684.45,56.8483,-1366.34,0,0
78986.075,56.3731,-1339.88,0,0
80287.7,56.5828,-1313.8,0,0
81589.325,57.0192,-1288.15,0,0
82890.95,58.6693,-1263.54,0,0
84192.575,60.4181,-1240.27,0,0
85494.2,61.2958,-1219.13,0,0
86795.825,61.2325,-1196.06,0,0
88097.45,62.7704,-1173.59,0,0
89399.075,64.9039,-1152.01,0,0
90700.7,68.1074,-1130.73,0,0
92002.3,72.9478,-1112.51,0,0
93303.9,75.2151,-1097.7,0,0
94605.6,74.2747,-1079.68,0,0
95907.2,76.3027,-1062.27,0,0
97208.8,78.2568,-1045.27,0,0
98510.4,80.7492,-1030.24,0,0
99812.1,80.5766,-1016.42,0,0
101114,80.9727,-1001.96,0,0
102415,79.7968,-987.887,0,0
103717,78.4335,-971.778,0,0
105019,78.3474,-956.214,0,0
106320.175,79.1712,-940.021,0,0
107621.8,80.7224,-926.097,0,0
108923.425,80.7722,-911.931,0,0
110225.05,81.6808,-897.892,0,0
111526.675,81.9974,-884.639,0,0
112828.3,82.4627,-871.323,0,0
114129.925,82.6678,-858.543,0,0
115431.55,82.5104,-845.613,0,0
116733.175,81.9688,-832.481,0,0
118034.8,82.1749,-818.639,0,0
119336.425,82.8733,-805.883,0,0
120638.05,82.3006,-793.122,0,0
121939.675,82.456,-779.836,0,0
123241,82.6197,-767.037,0,0
124543,82.7469,-753.39,0,0
125845,83.7014,-740.315,0,0
127146,84.5143,-727.282,0,0
128448,85.0674,-714.726,0,0
129749,85.4493,-701.816,0,0
131051,86.7342,-688.158,0,0
132353,87.3542,-675.821,0,0
133654,88.0163,-662.043,0,0
134956,89.4498,-647.52,0,0
136258,92.9951,-634.195,0,0
137559,94.0847,-623.055,0,0
138860.775,93.6894,-608.458,0,0
140162.4,95.3373,-593.233,0,0
141464.025,97.663,-577.322,0,0
142765.65,100.554,-560.936,0,0
144067.275,104.523,-543.539,0,0
145368.9,111.09,-524.457,0,0
146670.525,120.944,-507.67,0,0
147972.15,130.598,-493.36,0,0
149273.775,140.147,-474.651,0,0
150575.4,157.543,-456.779,0,0
151877.025,181.595,-447.867,0,0
153178.65,196.902,-449.944,0,0
154480,204.681,-448.349,0,0
155782,216.074,-441.477,0,0
157084,223.703,-449.574,0,0
158385,220.132,-438.743,0,0
159687,232.841,-429.373,0,0
160988,235.131,-426.677,0,0
162290,243.203,-412.798,0,0
163592,258.905,-407.447,0,0
164893,269.602,-409.743,0,0
166195,270.992,-417.199,0,0
167497,261.977,-413.326,0,0
168798,255.736,-399.575,0,0
170100,255.017,-380.473,0,0
171401.375,257.755,-358.505,0,0
172703.0,269.825,-331.232,0,0
174004.625,289.877,-312.046,0,0
175306.25,307.008,-297.674,0,0
176607.875,323.975,-276.803,0,0
177909.5,350.829,-257.461,0,0
179211.125,386.37,-241.718,0,0
180512.75,422.925,-236.946,0,0
181814.375,455.181,-237.083,0,0
183116.0,488.982,-240.78,0,0
184417.625,512.916,-245.699,0,0
185719.25,542.241,-242.624,0,0
187021,582.343,-243.819,0,0
188322,626.795,-251.133,0,0
189624,670.025,-276.971,0,0
190926,701.021,-297.149,0,0
192227,745.832,-320.81,0,0
193529,787.766,-344.766,0,0
194831,854.347,-393.965,0,0
196132,903.523,-475.901,0,0
197434,917.826,-584.764,0,0
198735,889.456,-686.374,0,0
200037,837.74,-766.62,0,0
201339,766.283,-820.294,0,0
202640.35,693.603,-853.412,0,0
203941.975,623.545,-853.292,0,0
205243.6,575.485,-842.092,0,0
206545.225,533.166,-825.774,0,0
207846.85,510.89,-801.284,0,0
209148.475,498.766,-785.131,0,0
210450.1,494.202,-773.283,0,0
211751.725,492.921,-769.838,0,0
213053.35,491.479,-774.379,0,0
214354.975,481.923,-783.491,0,0
215656.6,466.488,-788.83,0,0
216958.225,450.668,-785.547,0,0
218259.85,445.537,-780.141,0,0
219561,442.403,-781.601,0,0
220863,440.792,-786.19,0,0
222165,437.107,-796.215,0,0
223466,427.909,-810.183,0,0
224768,415.714,-821.887,0,0
226070,398.448,-837.356,0,0
227371,373.21,-846.253,0,0
228673,346.764,-846.41,0,0
229974,326.974,-845.201,0,0
231276,303.385,-844.32,0,0
232578,278.834,-837.922,0,0
233879,256.549,-827.063,0,0
235180.95,237.037,-811.974,0,0
236482.575,223.28,-794.759,0,0
237784.2,214.191,-778.301,0,0
239085.825,209.253,-763.506,0,0
240387.45,206.924,-754.804,0,0
241689.075,199.671,-749.276,0,0
242990.7,189.165,-740.675,0,0
244292.325,180.093,-728.526,0,0
245593.95,173.734,-715.351,0,0
246895.575,170.274,-701.951,0,0
248197.2,167.546,-691.369,0,0
249498.825,163.546,-679.25,0,0
250800,162.144,-664.834,0,0
252102,166.11,-650.522,0,0
253404,173.409,-642.75,0,0
254705,175.927,-638.292,0,0
256007,177.306,-631.501,0,0
257309,180.356,-624.18,0,0
258610,185.328,-617.608,0,0
259912,191.578,-613.23,0,0
261213,197.339,-611.212,0,0
262515,202.619,-610.906,0,0
263817,205.378,-611.14,0,0
265118,207.414,-609.075,0,0
266420,213.365,-605.201,0,0
267721.55,225.178,-604.819,0,0
269023.175,238.967,-613.082,0,0
270324.8,247.369,-630.495,0,0
271626.425,246.979,-652.493,0,0
272928.05,235.585,-673.78,0,0
274229.675,214.93,-688.987,0,0
275531.3,190.153,-692.99,0,0
276832.925,169.848,-687.822,0,0
278134.55,154.095,-680.036,0,0
279436.175,141.142,-670.033,0,0
280737.8,132.967,-657.865,0,0
282039.425,129.283,-647.29,0,0
283341,127.898,-640.034,0,0
284643,125.215,-633.991,0,0
285944,124.692,-626.94,0,0
287246,127.812,-624.113,0,0
288548,127.411,-628.05,0,0
289849,119.874,-630.726,0,0
291151,111.231,-628.792,0,0
292452,102.951,-625.756,0,0
293754,94.6209,-620.415,0,0
295056,87.4533,-613.617,0,0
296357,81.8323,-605.71,0,0
297659,77.7204,-597.94,0,0
298960.525,74.3454,-590.143,0,0
300262.15,71.8884,-582.146,0,0
301563.775,70.8987,-574.131,0,0
302865.4,71.3183,-567.313,0,0
304167.025,71.9518,-561.741,0,0
305468.65,72.7209,-556.866,0,0
306770.275,73.6488,-553.008,0,0
308071.9,74.2815,-549.977,0,0
309373.525,74.298,-548.263,0,0
310675.15,72.6799,-546.247,0,0
311976.775,70.9215,-543.649,0,0
313278.4,68.9148,-540.962,0,0
314580,66.4908,-537.827,0,0
315882,64.1225,-533.994,0,0
317183,62.4016,-529.712,0,0
318485,61.4484,-525.684,0,0
319787,60.8179,-522.047,0,0
321088,60.3152,-519.135,0,0
322390,59.0209,-516.655,0,0
323691,57.5291,-514.09,0,0
324993,55.2814,-511.474,0,0
326295,52.7401,-507.964,0,0
327596,50.7821,-504.068,0,0
328898,49.0573,-500.097,0,0
330200,47.3826,-496.045,0,0
331501.125,45.879,-491.732,0,0
332802.75,44.7163,-487.26,0,0
334104.375,44.1464,-482.721,0,0
335406.0,44.0818,-478.48,0,0
336707.625,44.1694,-474.788,0,0
338009.25,44.1518,-471.545,0,0
339310.875,43.841,-468.526,0,0
340612.5,43.2567,-465.443,0,0
341914.125,42.3888,-462.309,0,0
343215.75,41.6227,-458.885,0,0
344517.375,41.0003,-455.223,0,0
345819.0,40.5629,-451.501,0,0
347121,40.4184,-447.692,0,0
348422,40.5719,-444.024,0,0
349724,40.8621,-440.591,0,0
351025,41.317,-437.358,0,0
352327,41.7257,-434.354,0,0
353629,42.1396,-431.437,0,0
354930,42.6753,-428.823,0,0
356232,42.9203,-426.317,0,0
357534,42.9209,-424.067,0,0
358835,42.7133,-421.566,0,0
360137,42.5116,-418.746,0,0
361438,42.448,-415.918,0,0
362740.1,42.4731,-413.014,0,0
364041.725,42.6827,-409.984,0,0
365343.35,43.1699,-407.025,0,0
366644.975,43.8554,-404.414,0,0
367946.6,44.3319,-401.955,0,0
369248.225,44.8354,-399.246,0,0
370549.85,45.9227,-396.653,0,0
371851.475,47.0563,-394.777,0,0
373153.1,47.8584,-393.253,0,0
374454.725,48.2108,-391.811,0,0
375756.35,48.3539,-390.137,0,0
377057.975,48.7034,-388.428,0,0
378359.6,48.9423,-387.17,0,0
379661,48.3801,-385.666,0,0
380963,48.5798,-383.284,0,0
382264,49.221,-382.339,0,0
383566,48.4701,-381.726,0,0
384868,46.99,-380.175,0,0
386169,45.6926,-377.759,0,0
387471,44.7476,-375.06,0,0
388773,44.2532,-372.062,0,0
390074,44.2719,-369.168,0,0
391376,44.3771,-366.678,0,0
392677,44.3424,-364.174,0,0
393979,44.3454,-361.632,0,0
395280.7,44.4807,-358.975,0,0
396582.325,44.8572,-356.42,0,0
397883.95,45.219,-354.123,0,0
399185.575,45.3775,-351.914,0,0
400006.6,45.4218,-350.415,0,0