Folder: ML_Dmg_Mehdi_Dataset/Accelerated corrosion test data/2025-10-19_18-00-04 (part 3)

File: sample_7.csv
Frequency (Hz),Impedance (ohms),Phase (Radians),Temperature (C),Humidity (%)
10000.0,277.072,-12103.6,0,0
11301.625,249.486,-10706.7,0,0
12603.25,263.982,-9660.04,0,0
13904.875,210.188,-8761.71,0,0
15206.5,198.599,-8021.94,0,0
16508.125,172.852,-7381.22,0,0
17809.75,169.399,-6825.84,0,0
19111.375,180.242,-6378.31,0,0
20413.0,172.728,-5994.57,0,0
21714.625,158.534,-5651.71,0,0
23016.25,130.637,-5324.34,0,0
24317.875,122.837,-5030.72,0,0
25619.5,118.697,-4766.2,0,0
26921.1,120.618,-4520.96,0,0
28222.7,178.685,-4295.59,0,0
29524.4,143.129,-4185.16,0,0
30826,130.318,-3995.31,0,0
32127.6,119.573,-3845.93,0,0
33429.2,101.939,-3696.04,0,0
34730.9,92.5087,-3550.76,0,0
36032.5,88.6955,-3416.66,0,0
37334.1,86.2186,-3292.6,0,0
38635.7,86.9071,-3175.12,0,0
39937.4,100.568,-3075.46,0,0
41239,87.5534,-2989.73,0,0
42540.6,79.983,-2892.97,0,0
43842.225,78.8687,-2803.21,0,0
45143.85,80.2658,-2725.64,0,0
46445.475,77.3035,-2653.75,0,0
47747.1,70.6595,-2576.74,0,0
49048.725,68.0812,-2506.5,0,0
50350.35,66.1753,-2439.21,0,0
51651.975,64.4883,-2375.47,0,0
52953.6,63.7629,-2314.88,0,0
54255.225,62.305,-2258.49,0,0
55556.85,60.9457,-2203.51,0,0
56858.475,60.0693,-2150.94,0,0
58160.1,59.2792,-2100.44,0,0
59461.7,59.3255,-2053.23,0,0
60763.3,58.8602,-2009.23,0,0
62065,56.776,-1965.71,0,0
63366.6,55.4717,-1922.87,0,0
64668.2,54.9396,-1882.14,0,0
65969.8,54.9313,-1843.73,0,0
67271.5,53.2708,-1806.88,0,0
68573.1,51.9435,-1770.12,0,0
69874.7,51.3097,-1734.87,0,0
71176.3,51.0296,-1701.05,0,0
72478,50.1843,-1668.8,0,0
73779.6,49.2098,-1636.94,0,0
75081.2,48.7312,-1606.14,0,0
76382.825,48.1247,-1576.43,0,0
77684.45,47.9356,-1547.47,0,0
78986.075,47.4968,-1519.54,0,0
80287.7,47.4478,-1492.44,0,0
81589.325,47.0435,-1466.26,0,0
82890.95,46.7443,-1440.58,0,0
84192.575,46.6417,-1415.43,0,0
85494.2,46.9313,-1391.33,0,0
86795.825,47.0481,-1368.01,0,0
88097.45,47.1375,-1345.4,0,0
89399.075,46.4767,-1323.1,0,0
90700.7,46.4915,-1300.78,0,0
92002.3,46.6815,-1279.08,0,0
93303.9,47.0158,-1257.12,0,0
94605.6,50.7097,-1237.11,0,0
95907.2,49.5265,-1220.63,0,0
97208.8,48.6593,-1200.21,0,0
98510.4,49.6945,-1181.04,0,0
99812.1,49.8069,-1162.57,0,0
101114,50.7125,-1143.26,0,0
102415,52.5782,-1125.19,0,0
103717,55.1196,-1108.42,0,0
105019,56.2114,-1093.51,0,0
106320.175,55.6479,-1077.69,0,0
107621.8,56.3235,-1060.67,0,0
108923.425,57.4153,-1044.46,0,0
110225.05,58.0408,-1027.36,0,0
111526.675,61.0816,-1010.48,0,0
112828.3,65.9419,-993.864,0,0
114129.925,71.5086,-979.999,0,0
115431.55,77.935,-967.301,0,0
116733.175,86.6062,-958.847,0,0
118034.8,90.9401,-954.603,0,0
119336.425,93.6206,-952.866,0,0
120638.05,86.6723,-953.568,0,0
121939.675,74.82,-943.74,0,0
123241,67.173,-930.556,0,0
124543,62.3986,-915.706,0,0
125845,58.1949,-901.624,0,0
127146,54.5231,-887.128,0,0
128448,52.7073,-871.852,0,0
129749,51.0004,-857.167,0,0
131051,50.0176,-842.851,0,0
132353,48.8532,-827.452,0,0
133654,49.3201,-811.679,0,0
134956,52.5191,-796.752,0,0
136258,56.1284,-785.254,0,0
137559,56.5338,-776.577,0,0
138860.775,53.8752,-764.247,0,0
140162.4,53.7111,-750.152,0,0
141464.025,53.8719,-736.592,0,0
142765.65,54.8044,-722.155,0,0
144067.275,57.5266,-708.327,0,0
145368.9,59.6974,-696.621,0,0
146670.525,60.4797,-683.363,0,0
147972.15,62.0765,-670.398,0,0
149273.775,62.3147,-657.777,0,0
150575.4,62.2992,-642.507,0,0
151877.025,63.6601,-625.219,0,0
153178.65,67.2212,-606.946,0,0
154480,72.7462,-588.622,0,0
155782,80.8142,-569.953,0,0
157084,91.4682,-552.581,0,0
158385,104.515,-538.374,0,0
159687,114.788,-529.241,0,0
160988,118.047,-515.332,0,0
162290,124.839,-492.047,0,0
163592,140.362,-466.812,0,0
164893,163.985,-444.423,0,0
166195,189.678,-419.885,0,0
167497,234.177,-395.526,0,0
168798,294.947,-388.608,0,0
170100,359.973,-410.343,0,0
171401.375,414.214,-461.561,0,0
172703.0,439.279,-532.006,0,0
174004.625,420.054,-609.921,0,0
175306.25,366.171,-642.683,0,0
176607.875,333.113,-632.932,0,0
177909.5,332.627,-628.741,0,0
179211.125,340.936,-658.885,0,0
180512.75,305.087,-687.984,0,0
181814.375,268.482,-700,0,0
183116.0,224.609,-696.29,0,0
184417.625,191.942,-674.24,0,0
185719.25,171.127,-651.642,0,0
187021,154.71,-624.561,0,0
188322,149.16,-598.386,0,0
189624,144.103,-578.888,0,0
190926,137.45,-557.056,0,0
192227,136.265,-532.426,0,0
193529,138.085,-506.946,0,0
194831,144.867,-482.748,0,0
196132,155.719,-461.358,0,0
197434,167.801,-443.842,0,0
198735,177.006,-428.407,0,0
200037,185.116,-409.216,0,0
201339,198.322,-386.04,0,0
202640.35,218.342,-361.427,0,0
203941.975,245.586,-340.668,0,0
205243.6,277.15,-323.018,0,0
206545.225,320.125,-313.446,0,0
207846.85,354.739,-318.28,0,0
209148.475,389.658,-311.266,0,0
210450.1,449.599,-317.861,0,0
211751.725,499.601,-359.975,0,0
213053.35,524.783,-409.847,0,0
214354.975,539.353,-453.929,0,0
215656.6,540.777,-501.873,0,0
216958.225,536.942,-547.022,0,0
218259.85,513.566,-590.836,0,0
219561,473.712,-621.998,0,0
220863,434.77,-621.171,0,0
222165,414.353,-610.543,0,0
223466,407.697,-602.417,0,0
224768,404.201,-598.612,0,0
226070,404.966,-592.517,0,0
227371,415.62,-594.041,0,0
228673,425.588,-605.69,0,0
229974,431.93,-625.003,0,0
231276,431.398,-652.069,0,0
232578,421.789,-678.851,0,0
233879,398.068,-712.008,0,0
235180.95,353.837,-726.753,0,0
236482.575,316.641,-717.687,0,0
237784.2,293.96,-707.402,0,0
239085.825,269.926,-690.614,0,0
240387.45,262.978,-671.196,0,0
241689.075,256.892,-666.795,0,0
242990.7,240.239,-656.512,0,0
244292.325,232.311,-636.473,0,0
245593.95,236.766,-623.265,0,0
246895.575,235.113,-618.109,0,0
248197.2,230.053,-608.584,0,0
249498.825,228.888,-595.799,0,0
250800,231.9,-582.524,0,0
252102,241.178,-571.152,0,0
253404,255.51,-566.911,0,0
254705,267.748,-573.405,0,0
256007,270.391,-583.99,0,0
257309,266.413,-591.482,0,0
258610,260.182,-592.805,0,0
259912,256.512,-593.47,0,0
261213,251.478,-591.612,0,0
262515,249.393,-585.361,0,0
263817,256.591,-581.592,0,0
265118,261.279,-588.349,0,0
266420,260.497,-593.487,0,0
267721.55,259.769,-601.037,0,0
269023.175,251.257,-606.908,0,0
270324.8,246.351,-604.678,0,0
271626.425,250.174,-603.583,0,0
272928.05,258.784,-618.236,0,0
274229.675,247.842,-645.414,0,0
275531.3,217.684,-662.056,0,0
276832.925,181.501,-658.532,0,0
278134.55,154.026,-638.937,0,0
279436.175,141.331,-614.723,0,0
280737.8,137.746,-594.115,0,0
282039.425,137.6,-580.36,0,0
283341,134.391,-566.696,0,0
284643,135.879,-550.353,0,0
285944,142.558,-537.572,0,0
287246,149.92,-530.854,0,0
288548,152.342,-526.86,0,0
289849,153.21,-518.917,0,0
291151,157.287,-508.909,0,0
292452,164.45,-501.248,0,0
293754,172.388,-494.822,0,0
295056,180.952,-489.37,0,0
296357,191.939,-484.516,0,0
297659,205.6,-482.313,0,0
298960.525,220.855,-484.06,0,0
300262.15,237.551,-490.081,0,0
301563.775,255.477,-502.644,0,0
302865.4,271.163,-528.492,0,0
304167.025,267.929,-562.486,0,0
305468.65,251.538,-586.668,0,0
306770.275,230.108,-603.05,0,0
308071.9,206.901,-610.596,0,0
309373.525,184.373,-610.58,0,0
310675.15,166.733,-604.884,0,0
311976.775,153.335,-598.07,0,0
313278.4,141.937,-591.374,0,0
314580,131.441,-583.031,0,0
315882,123.979,-573.103,0,0
317183,119.697,-563.976,0,0
318485,116.741,-556.487,0,0
319787,114.758,-549.576,0,0
321088,113.58,-544.436,0,0
322390,111.835,-540.102,0,0
323691,110.048,-536.051,0,0
324993,108.216,-532.199,0,0
326295,106.975,-528.456,0,0
327596,106.084,-526.193,0,0
328898,103.707,-524.861,0,0
330200,100.529,-523.109,0,0
331501.125,96.7385,-521.353,0,0
332802.75,91.9125,-519.22,0,0
334104.375,86.453,-515.609,0,0
335406.0,81.3895,-510.947,0,0
336707.625,76.624,-505.416,0,0
338009.25,72.5755,-499.073,0,0
339310.875,69.6552,-492.474,0,0
340612.5,67.1961,-485.738,0,0
341914.125,65.3868,-478.735,0,0
343215.75,64.6011,-471.679,0,0
344517.375,64.9881,-465.071,0,0
345819.0,66.1311,-459.671,0,0
347121,66.7546,-455.702,0,0
348422,65.9683,-451.878,0,0
349724,64.8224,-446.84,0,0
351025,64.1187,-441.151,0,0
352327,64.3631,-434.712,0,0
353629,66.2659,-428.64,0,0
354930,68.95,-424.089,0,0
356232,71.3433,-421.241,0,0
357534,72.0111,-419.173,0,0
358835,70.9688,-416.019,0,0
360137,70.2311,-410.915,0,0
361438,70.8939,-404.999,0,0
362740.1,72.9112,-399.268,0,0
364041.725,75.951,-394.199,0,0
365343.35,79.6705,-390.077,0,0
366644.975,83.2766,-387.342,0,0
367946.6,86.4187,-384.922,0,0
369248.225,89.7323,-383.177,0,0
370549.85,92.416,-382.776,0,0
371851.475,92.896,-382.568,0,0
373153.1,92.5519,-380.135,0,0
374454.725,93.6796,-376.799,0,0
375756.35,95.5043,-374.146,0,0
377057.975,97.0208,-372.065,0,0
378359.6,97.9142,-369.3,0,0
379661,99.7123,-365.863,0,0
380963,102.036,-362.931,0,0
382264,104.537,-360.133,0,0
383566,107.394,-357.63,0,0
384868,110.29,-355.354,0,0
386169,112.946,-353.35,0,0
387471,115.757,-351.077,0,0
388773,118.558,-348.302,0,0
390074,122.959,-345.096,0,0
391376,128.238,-343.41,0,0
392677,133.32,-342.359,0,0
393979,138.259,-341.823,0,0
395280.7,143.44,-340.578,0,0
396582.325,150.541,-339.275,0,0
397883.95,160.44,-339.555,0,0
399185.575,172.475,-344.402,0,0
400006.6,179.791,-351.04,0,0

File: sample_8.csv
Frequency (Hz),Impedance (ohms),Phase (Radians),Temperature (C),Humidity (%)
10000.0,309.209,-10980,0,0
11301.625,273.989,-9730.46,0,0
12603.25,252.563,-8738.09,0,0
13904.875,224.371,-7936.52,0,0
15206.5,203.642,-7262.34,0,0
16508.125,188.245,-6695.43,0,0
17809.75,175.033,-6207.81,0,0
19111.375,167.206,-5785.46,0,0
20413.0,160.954,-5423.98,0,0
21714.625,149.09,-5103.77,0,0
23016.25,143.926,-4820,0,0
24317.875,132.011,-4563.15,0,0
25619.5,125.24,-4330.14,0,0
26921.1,120.463,-4119.74,0,0
28222.7,117.396,-3929.14,0,0
29524.4,113.713,-3756.71,0,0
30826,109.413,-3599.2,0,0
32127.6,105.406,-3450.53,0,0
33429.2,105.329,-3313.67,0,0
34730.9,106.584,-3188.93,0,0
36032.5,109.746,-3078.51,0,0
37334.1,105.924,-2979.38,0,0
38635.7,95.5792,-2882.17,0,0
39937.4,87.9551,-2785.12,0,0
41239,85.315,-2694.72,0,0
42540.6,82.1958,-2609.34,0,0
43842.225,81.0965,-2532.21,0,0
45143.85,77.2512,-2457.51,0,0
46445.475,74.5855,-2386.34,0,0
47747.1,72.6052,-2318.68,0,0
49048.725,70.5535,-2255.33,0,0
50350.35,68.7231,-2194.34,0,0
51651.975,67.6489,-2136.09,0,0
52953.6,67.0166,-2081.31,0,0
54255.225,66.3192,-2031.18,0,0
55556.85,63.1682,-1982.03,0,0
56858.475,61.1692,-1933.08,0,0
58160.1,60.224,-1886.47,0,0
59461.7,59.3226,-1842.66,0,0
60763.3,58.1496,-1799.81,0,0
62065,57.6379,-1759.04,0,0
63366.6,58.0952,-1719.46,0,0
64668.2,58.2568,-1683.3,0,0
65969.8,57.3772,-1648.07,0,0
67271.5,55.6161,-1613.47,0,0
68573.1,54.5719,-1579.56,0,0
69874.7,54.3416,-1546.38,0,0
71176.3,54.3458,-1515.1,0,0
72478,54.3277,-1485.21,0,0
73779.6,53.4043,-1456.09,0,0
75081.2,52.5479,-1427.46,0,0
76382.825,52.2381,-1399.48,0,0
77684.45,51.8064,-1372.71,0,0
78986.075,51.101,-1346.29,0,0
80287.7,50.5689,-1320.06,0,0
81589.325,50.7321,-1294.24,0,0
82890.95,51.489,-1269.31,0,0
84192.575,52.9196,-1245.75,0,0
85494.2,52.5129,-1223.88,0,0
86795.825,52.4258,-1200.21,0,0
88097.45,53.2482,-1177.52,0,0
89399.075,54.072,-1154.95,0,0
90700.7,56.2222,-1131.95,0,0
92002.3,60.3853,-1111.99,0,0
93303.9,62.3444,-1092.84,0,0
94605.6,64.5457,-1074.36,0,0
95907.2,66.3055,-1054.9,0,0
97208.8,69.7864,-1035.74,0,0
98510.4,74.8641,-1017.61,0,0
99812.1,79.6206,-1002.99,0,0
101114,84.4361,-989.492,0,0
102415,87.1194,-978.475,0,0
103717,86.8037,-966.556,0,0
105019,85.981,-954.382,0,0
106320.175,85.3276,-939.795,0,0
107621.8,85.6316,-926.449,0,0
108923.425,85.2152,-911.737,0,0
110225.05,87.0271,-898.416,0,0
111526.675,87.5585,-885.686,0,0
112828.3,88.252,-873.645,0,0
114129.925,88.2016,-861.903,0,0
115431.55,87.9635,-850.439,0,0
116733.175,86.2152,-837.85,0,0
118034.8,85.937,-825.146,0,0
119336.425,85.3701,-812.866,0,0
120638.05,84.457,-800.355,0,0
121939.675,83.734,-787.796,0,0
123241,82.9898,-775.282,0,0
124543,81.887,-762.391,0,0
125845,80.8798,-749.123,0,0
127146,80.3226,-735.28,0,0
128448,80.3448,-721.315,0,0
129749,80.4264,-707.698,0,0
131051,81.4286,-692.987,0,0
132353,82.8197,-679.774,0,0
133654,83.5958,-666.54,0,0
134956,84.8267,-652.285,0,0
136258,87.4735,-639.184,0,0
137559,87.4019,-626.829,0,0
138860.775,87.1775,-611.136,0,0
140162.4,89.4426,-594.96,0,0
141464.025,92.0639,-579.103,0,0
142765.65,94.8525,-562.252,0,0
144067.275,99.7669,-544.29,0,0
145368.9,106.885,-525.785,0,0
146670.525,116.086,-508.31,0,0
147972.15,125.894,-493.246,0,0
149273.775,137.295,-473.874,0,0
150575.4,156.382,-455.573,0,0
151877.025,182.55,-448.169,0,0
153178.65,201.089,-451.276,0,0
154480,209.644,-454.199,0,0
155782,223.375,-453.159,0,0
157084,222.728,-465.756,0,0
158385,219.239,-453.775,0,0
159687,228.328,-451.049,0,0
160988,222.575,-448.71,0,0
162290,227.863,-432.353,0,0
163592,238.495,-429.452,0,0
164893,242.87,-428.358,0,0
166195,241.461,-430.943,0,0
167497,230.244,-424.652,0,0
168798,221.19,-408.772,0,0
170100,216.839,-386.223,0,0
171401.375,217.526,-360.901,0,0
172703.0,226.253,-332.517,0,0
174004.625,240.474,-307.907,0,0
175306.25,251.227,-285.559,0,0
176607.875,268.881,-254.842,0,0
177909.5,290.462,-226.683,0,0
179211.125,324.054,-194.452,0,0
180512.75,367.091,-169.968,0,0
181814.375,419.288,-151.99,0,0
183116.0,476.013,-153.619,0,0
184417.625,517.765,-162.878,0,0
185719.25,566.3,-170.377,0,0
187021,610.614,-189.829,0,0
188322,647.767,-208.811,0,0
189624,683.888,-230.365,0,0
190926,720.805,-246,0,0
192227,765.399,-274.928,0,0
193529,811.738,-290.724,0,0
194831,885.019,-338.048,0,0
196132,948.852,-419.229,0,0
197434,979.196,-537.516,0,0
198735,959.093,-660.624,0,0
200037,893.026,-761.197,0,0
201339,814.94,-814.111,0,0
202640.35,731.801,-852.304,0,0
203941.975,655.582,-847.092,0,0
205243.6,602.473,-830.744,0,0
206545.225,562.348,-801.313,0,0
207846.85,553.149,-772.328,0,0
209148.475,551.716,-761.08,0,0
210450.1,552.623,-751.686,0,0
211751.725,562.699,-752.817,0,0
213053.35,569.349,-768.162,0,0
214354.975,568.244,-788.105,0,0
215656.6,561.498,-813.476,0,0
216958.225,542.481,-838.75,0,0
218259.85,518.698,-857.136,0,0
219561,489.678,-871.167,0,0
220863,457.475,-876.643,0,0
222165,431.364,-872.872,0,0
223466,411.09,-866.685,0,0
224768,397.418,-862.44,0,0
226070,386.421,-864.757,0,0
227371,368.732,-871.568,0,0
228673,347.095,-872.269,0,0
229974,327.894,-874.294,0,0
231276,302.518,-875.538,0,0
232578,275.168,-870.717,0,0
233879,246.887,-860.114,0,0
235180.95,222.241,-841.049,0,0
236482.575,206.033,-818.934,0,0
237784.2,195.243,-798.112,0,0
239085.825,189.477,-776.962,0,0
240387.45,189.414,-761.715,0,0
241689.075,188.395,-752.671,0,0
242990.7,182.036,-743.839,0,0
244292.325,176.584,-731.946,0,0
245593.95,173.223,-720.007,0,0
246895.575,172.542,-708.647,0,0
248197.2,171.388,-700.069,0,0
249498.825,169.64,-691.489,0,0
250800,168.58,-681.838,0,0
252102,170.061,-673.355,0,0
253404,172.184,-668.317,0,0
254705,170.725,-665.524,0,0
256007,166.218,-660.613,0,0
257309,161.312,-651.716,0,0
258610,160.374,-639.904,0,0
259912,163.907,-629.263,0,0
261213,168.376,-622.089,0,0
262515,172.39,-616.865,0,0
263817,174.853,-610.326,0,0
265118,179.392,-601.534,0,0
266420,189.77,-591.968,0,0
267721.55,207.442,-587.647,0,0
269023.175,226.949,-594.649,0,0
270324.8,242.63,-609.494,0,0
271626.425,250.871,-634.022,0,0
272928.05,247.624,-661.963,0,0
274229.675,227.94,-688.053,0,0
275531.3,199.215,-698.696,0,0
276832.925,173.289,-697.61,0,0
278134.55,152.017,-689.61,0,0
279436.175,135.857,-677.238,0,0
280737.8,126.823,-662.781,0,0
282039.425,123.128,-651.362,0,0
283341,120.901,-643.214,0,0
284643,118.468,-635.773,0,0
285944,118.371,-628.272,0,0
287246,121.965,-624.723,0,0
288548,122.744,-628.92,0,0
289849,115.117,-633.407,0,0
291151,104.305,-631.991,0,0
292452,94.3286,-627.703,0,0
293754,85.4869,-620.872,0,0
295056,78.1226,-612.427,0,0
296357,73.1662,-603.276,0,0
297659,69.4013,-594.748,0,0
298960.525,66.4746,-586.002,0,0
300262.15,64.7087,-577.183,0,0
301563.775,64.4076,-568.59,0,0
302865.4,65.5906,-561.021,0,0
304167.025,67.4109,-554.996,0,0
305468.65,69.2549,-550.146,0,0
306770.275,70.927,-546.561,0,0
308071.9,72.1739,-543.761,0,0
309373.525,72.4103,-542.233,0,0
310675.15,71.2414,-539.889,0,0
311976.775,70.3966,-537.231,0,0
313278.4,69.1214,-534.992,0,0
314580,67.3218,-532.314,0,0
315882,65.1905,-529.055,0,0
317183,63.764,-525.263,0,0
318485,62.7025,-521.668,0,0
319787,61.8892,-518.087,0,0
321088,61.4291,-515.116,0,0
322390,60.6613,-512.624,0,0
323691,59.2478,-510.538,0,0
324993,57.1184,-508.061,0,0
326295,54.7616,-504.701,0,0
327596,52.9895,-501.027,0,0
328898,51.2769,-497.405,0,0
330200,49.551,-493.485,0,0
331501.125,48.0673,-489.36,0,0
332802.75,46.9156,-484.871,0,0
334104.375,46.3595,-480.369,0,0
335406.0,46.5481,-476.258,0,0
336707.625,46.8234,-472.951,0,0
338009.25,46.6083,-470.147,0,0
339310.875,45.8284,-467.456,0,0
340612.5,44.8514,-464.294,0,0
341914.125,43.7422,-460.811,0,0
343215.75,42.8064,-457.016,0,0
344517.375,42.1603,-452.909,0,0
345819.0,41.9759,-448.743,0,0
347121,42.1433,-444.658,0,0
348422,42.5652,-440.754,0,0
349724,43.2165,-436.973,0,0
351025,44.3101,-433.449,0,0
352327,45.4858,-430.416,0,0
353629,46.5666,-427.709,0,0
354930,47.5558,-425.295,0,0
356232,48.3692,-423.095,0,0
357534,49.0354,-420.969,0,0
358835,49.5702,-418.943,0,0
360137,50.0673,-416.887,0,0
361438,50.4852,-414.911,0,0
362740.1,50.8191,-413.116,0,0
364041.725,51.004,-411.208,0,0
365343.35,51.17,-409.299,0,0
366644.975,51.2631,-407.329,0,0
367946.6,51.3824,-405.306,0,0
369248.225,51.5871,-403.043,0,0
370549.85,52.3556,-400.953,0,0
371851.475,53.2503,-399.772,0,0
373153.1,53.5346,-399.147,0,0
374454.725,52.9204,-398.419,0,0
375756.35,51.6971,-396.917,0,0
377057.975,51.0488,-394.819,0,0
378359.6,50.6004,-393.207,0,0
379661,49.4909,-391.135,0,0
380963,49.4384,-388.159,0,0
382264,50.2407,-386.705,0,0
383566,49.6817,-385.958,0,0
384868,48.2795,-384.711,0,0
386169,46.626,-382.667,0,0
387471,45.1241,-379.911,0,0
388773,44.159,-376.668,0,0
390074,43.8224,-373.454,0,0
391376,43.7464,-370.516,0,0
392677,43.6652,-367.784,0,0
393979,43.5144,-364.974,0,0
395280.7,43.5359,-361.958,0,0
396582.325,43.8778,-359.014,0,0
397883.95,44.2909,-356.322,0,0
399185.575,44.7236,-353.724,0,0
400006.6,44.9716,-352.098,0,0