Folder: ML_Dmg_Mehdi_Dataset/Accelerated corrosion test data/2025-10-01_06-00-03

Note: README.md
# ML_Dmg_Mehdi_Dataset

File: sample_1.csv
Frequency (Hz),Impedance (ohms),Phase (Radians),Temperature (C),Humidity (%)
10000.0,239.952,-12244.8,0,0
11301.625,213.305,-10845.6,0,0
12603.25,194.63,-9742.33,0,0
13904.875,181.737,-8814.9,0,0
15206.5,180.519,-8084.22,0,0
16508.125,156.018,-7453.23,0,0
17809.75,148.09,-6917.15,0,0
19111.375,135.475,-6445.34,0,0
20413.0,154.535,-6002.22,0,0
21714.625,138.411,-5687.95,0,0
23016.25,122.633,-5379.14,0,0
24317.875,112.861,-5085.97,0,0
25619.5,104.97,-4820.89,0,0
26921.1,113.497,-4572.27,0,0
28222.7,110.553,-4367.37,0,0
29524.4,107.769,-4199.85,0,0
30826,100.697,-4012.58,0,0
32127.6,98.3217,-3853.07,0,0
33429.2,89.0609,-3709.34,0,0
34730.9,82.1949,-3567.31,0,0
36032.5,77.873,-3435.69,0,0
37334.1,75.2279,-3312.83,0,0
38635.7,72.9885,-3198.91,0,0
39937.4,71.1765,-3092.02,0,0
41239,72.296,-2992.46,0,0
42540.6,70.8,-2900.5,0,0
43842.225,67.6809,-2812.61,0,0
45143.85,68.8531,-2730.92,0,0
46445.475,65.9638,-2654.7,0,0
47747.1,64.2219,-2580.99,0,0
49048.725,61.7412,-2510.19,0,0
50350.35,59.9876,-2443.44,0,0
51651.975,58.7659,-2379.63,0,0
52953.6,57.7991,-2318.45,0,0
54255.225,57.0279,-2261.25,0,0
55556.85,56.2077,-2205.61,0,0
56858.475,55.2116,-2152.58,0,0
58160.1,54.7982,-2101.85,0,0
59461.7,54.7658,-2053.65,0,0
60763.3,54.7852,-2007.42,0,0
62065,53.3615,-1963.51,0,0
63366.6,52.7668,-1919.66,0,0
64668.2,53.2188,-1877.6,0,0
65969.8,55.642,-1839.5,0,0
67271.5,53.9978,-1802.61,0,0
68573.1,53.4256,-1767.14,0,0
69874.7,52.3044,-1733.09,0,0
71176.3,50.902,-1698.62,0,0
72478,49.0087,-1664.57,0,0
73779.6,48.441,-1630.99,0,0
75081.2,48.802,-1598.83,0,0
76382.825,49.7427,-1567.52,0,0
77684.45,50.3635,-1537.93,0,0
78986.075,52.1581,-1510.16,0,0
80287.7,51.4255,-1483.74,0,0
81589.325,51.2779,-1455.93,0,0
82890.95,51.4201,-1428.95,0,0
84192.575,53.2608,-1402.53,0,0
85494.2,55.1667,-1378.13,0,0
86795.825,56.3251,-1354.43,0,0
88097.45,56.7453,-1331.27,0,0
89399.075,57.9058,-1306.56,0,0
90700.7,61.911,-1283.2,0,0
92002.3,68.2634,-1261.59,0,0
93303.9,75.7349,-1244.61,0,0
94605.6,74.913,-1237.32,0,0
95907.2,68.0374,-1219.2,0,0
97208.8,64.9937,-1198.64,0,0
98510.4,64.5361,-1178.42,0,0
99812.1,63.8,-1157.88,0,0
101114,64.1943,-1138.33,0,0
102415,63.5463,-1116.45,0,0
103717,68.1657,-1095.21,0,0
105019,75.0501,-1076.96,0,0
106320.175,81.5619,-1061.03,0,0
107621.8,88.1862,-1048.59,0,0
108923.425,93.1321,-1037.59,0,0
110225.05,94.6644,-1028.53,0,0
111526.675,95.353,-1016.96,0,0
112828.3,97.7825,-1007.2,0,0
114129.925,96.8998,-999.708,0,0
115431.55,92.825,-990.512,0,0
116733.175,87.4939,-978.045,0,0
118034.8,83.4482,-963.172,0,0
119336.425,82.1574,-947.439,0,0
120638.05,82.4364,-933.317,0,0
121939.675,81.4427,-920.742,0,0
123241,79.7092,-906.175,0,0
124543,79.5748,-890.998,0,0
125845,80.3194,-876.355,0,0
127146,81.2057,-861.942,0,0
128448,83.1827,-846.844,0,0
129749,86.3219,-832.537,0,0
131051,91.4141,-819.321,0,0
132353,95.7287,-808.695,0,0
133654,99.0701,-798.449,0,0
134956,101.263,-788.22,0,0
136258,104.578,-777.112,0,0
137559,109.249,-767.521,0,0
138860.775,111.76,-761.742,0,0
140162.4,111.119,-753.553,0,0
141464.025,110.671,-742.869,0,0
142765.65,111.843,-732.131,0,0
144067.275,112.405,-721.367,0,0
145368.9,114.64,-709.451,0,0
146670.525,117.815,-698.76,0,0
147972.15,121.045,-689.474,0,0
149273.775,122.671,-680.243,0,0
150575.4,123.887,-670.93,0,0
151877.025,123.182,-659.787,0,0
153178.65,123.746,-645.354,0,0
154480,126.216,-629.362,0,0
155782,134.226,-611.501,0,0
157084,146.08,-597.019,0,0
158385,158.502,-587.76,0,0
159687,169.604,-576.263,0,0
160988,186.525,-566.913,0,0
162290,202.806,-565.195,0,0
163592,217.464,-565.282,0,0
164893,229.45,-568.154,0,0
166195,243.253,-575.364,0,0
167497,248.068,-588.217,0,0
168798,245.948,-597.935,0,0
170100,238.325,-603.587,0,0
171401.375,232.453,-602.004,0,0
172703.0,226.002,-600.022,0,0
174004.625,221.52,-593.74,0,0
175306.25,221.904,-587.131,0,0
176607.875,221.563,-585.015,0,0
177909.5,218.942,-582.079,0,0
179211.125,216.587,-578.903,0,0
180512.75,211.09,-576.409,0,0
181814.375,203.481,-569.897,0,0
183116.0,194.626,-559.719,0,0
184417.625,189.678,-544.545,0,0
185719.25,188.4,-528.834,0,0
187021,189.651,-513.46,0,0
188322,192.167,-498.732,0,0
189624,195.179,-482.499,0,0
190926,201.308,-466.592,0,0
192227,208.291,-451.084,0,0
193529,215.77,-435.086,0,0
194831,225.706,-417.848,0,0
196132,238.761,-399.583,0,0
197434,255.752,-381.314,0,0
198735,275.825,-366.656,0,0
200037,296.55,-351.554,0,0
201339,322.576,-333.975,0,0
202640.35,357.719,-320.329,0,0
203941.975,400.07,-313.131,0,0
205243.6,451.658,-319.086,0,0
206545.225,498.133,-346.809,0,0
207846.85,529.073,-386.737,0,0
209148.475,542.749,-427.539,0,0
210450.1,540.619,-462.228,0,0
211751.725,531.268,-481.701,0,0
213053.35,531.819,-486.29,0,0
214354.975,542.753,-495.72,0,0
215656.6,555.101,-512.414,0,0
216958.225,559.776,-528.297,0,0
218259.85,573.214,-541.018,0,0
219561,588.626,-559.051,0,0
220863,607.008,-584.368,0,0
222165,623.079,-621.102,0,0
223466,630.479,-667.348,0,0
224768,623.375,-717.891,0,0
226070,603.683,-767.037,0,0
227371,570.176,-810.063,0,0
228673,527.501,-840.72,0,0
229974,482.361,-859.386,0,0
231276,437.8,-864.312,0,0
232578,401.809,-860.381,0,0
233879,372.465,-855.285,0,0
235180.95,346.798,-849.856,0,0
236482.575,322.219,-843.549,0,0
237784.2,301.583,-835.918,0,0
239085.825,280.538,-829.641,0,0
240387.45,259.029,-820.039,0,0
241689.075,240.917,-807.509,0,0
242990.7,226.208,-794.563,0,0
244292.325,213.968,-782.881,0,0
245593.95,201.954,-772.12,0,0
246895.575,190.322,-760.338,0,0
248197.2,180.376,-747.771,0,0
249498.825,171.864,-735.421,0,0
250800,164.611,-723.275,0,0
252102,158.095,-711.28,0,0
253404,152.257,-698.873,0,0
254705,147.833,-685.724,0,0
256007,145.507,-672.989,0,0
257309,144.212,-660.883,0,0
258610,144.592,-649.095,0,0
259912,146.429,-638.058,0,0
261213,150.258,-628.606,0,0
262515,154.722,-621.406,0,0
263817,159.747,-615.31,0,0
265118,166.265,-611.702,0,0
266420,172.591,-612.779,0,0
267721.55,175.602,-618.257,0,0
269023.175,170.958,-625.239,0,0
270324.8,160.553,-626.33,0,0
271626.425,151.143,-621.313,0,0
272928.05,145.022,-613.074,0,0
274229.675,142.28,-604.65,0,0
275531.3,141.41,-596.795,0,0
276832.925,141.835,-590.079,0,0
278134.55,143.796,-584.442,0,0
279436.175,146.336,-580.848,0,0
280737.8,147.868,-579.948,0,0
282039.425,146.753,-579.436,0,0
283341,144.366,-578.168,0,0
284643,141.255,-575.703,0,0
285944,137.252,-572.427,0,0
287246,133.178,-567.003,0,0
288548,130.71,-558.965,0,0
289849,132.714,-550.885,0,0
291151,135.576,-547.071,0,0
292452,136.181,-543.903,0,0
293754,136.093,-539.953,0,0
295056,135.873,-534.448,0,0
296357,138.275,-527.291,0,0
297659,143.432,-522.41,0,0
298960.525,148.583,-519.341,0,0
300262.15,154.243,-517.328,0,0
301563.775,159.817,-516.92,0,0
302865.4,165.647,-517.986,0,0
304167.025,170.702,-520.82,0,0
305468.65,174.238,-525.424,0,0
306770.275,176.618,-530.09,0,0
308071.9,177.96,-536.02,0,0
309373.525,177.223,-542.747,0,0
310675.15,174.731,-548.853,0,0
311976.775,170.919,-554.648,0,0
313278.4,165.008,-560.105,0,0
314580,157.901,-563.536,0,0
315882,150.318,-565.69,0,0
317183,142.135,-566.672,0,0
318485,133.776,-565.391,0,0
319787,126.513,-563.132,0,0
321088,119.234,-560.137,0,0
322390,112.554,-555.667,0,0
323691,107.291,-549.871,0,0
324993,104.14,-543.806,0,0
326295,102.426,-539.023,0,0
327596,101.155,-535.061,0,0
328898,100.12,-532.237,0,0
330200,98.6613,-530.173,0,0
331501.125,96.6086,-528.516,0,0
332802.75,93.7579,-527.027,0,0
334104.375,90.315,-525.11,0,0
335406.0,86.5488,-522.603,0,0
336707.625,82.8386,-519.381,0,0
338009.25,79.437,-515.901,0,0
339310.875,76.1125,-512.024,0,0
340612.5,73.2653,-507.607,0,0
341914.125,71.0309,-503.341,0,0
343215.75,68.848,-499.33,0,0
344517.375,66.7708,-495.288,0,0
345819.0,64.626,-491.006,0,0
347121,62.7686,-486.513,0,0
348422,61.2723,-481.87,0,0
349724,60.1827,-477.129,0,0
351025,59.5078,-472.599,0,0
352327,59.0057,-468.296,0,0
353629,58.3957,-464.215,0,0
354930,58.0163,-460,0,0
356232,57.9361,-455.862,0,0
357534,58.0927,-451.906,0,0
358835,58.2568,-448.314,0,0
360137,58.3416,-444.656,0,0
361438,58.6298,-440.963,0,0
362740.1,58.9883,-437.665,0,0
364041.725,59.1791,-434.229,0,0
365343.35,59.374,-430.708,0,0
366644.975,59.7693,-427.036,0,0
367946.6,60.2735,-423.183,0,0
369248.225,61.1024,-418.918,0,0
370549.85,63.1654,-414.51,0,0
371851.475,66.0396,-410.969,0,0
373153.1,69.2858,-408.459,0,0
374454.725,72.5115,-406.899,0,0
375756.35,75.2644,-406.336,0,0
377057.975,77.2662,-405.883,0,0
378359.6,79.1691,-405.659,0,0
379661,80.7318,-405.733,0,0
380963,82.299,-406.049,0,0
382264,83.6968,-407.222,0,0
383566,83.914,-409.418,0,0
384868,82.482,-411.369,0,0
386169,79.914,-412.222,0,0
387471,77.1132,-412.143,0,0
388773,74.142,-410.817,0,0
390074,72.0793,-408.793,0,0
391376,70.8012,-407.015,0,0
392677,69.2732,-405.843,0,0
393979,66.8733,-404.359,0,0
395280.7,64.326,-402.008,0,0
396582.325,62.1473,-398.96,0,0
397883.95,60.5176,-395.527,0,0
399185.575,59.3075,-391.974,0,0
400006.6,58.7482,-389.688,0,0

File: sample_2.csv
Frequency (Hz),Impedance (ohms),Phase (Radians),Temperature (C),Humidity (%)
10000.0,226.44,-11392.7,0,0
11301.625,201.714,-10089.7,0,0
12603.25,181.908,-9058.03,0,0
13904.875,184.919,-8217.86,0,0
15206.5,163.6,-7527.19,0,0
16508.125,142.294,-6934.52,0,0
17809.75,131.517,-6428.17,0,0
19111.375,128.385,-5990.36,0,0
20413.0,117.734,-5608.6,0,0
21714.625,127.48,-5278.8,0,0
23016.25,111.631,-4985.49,0,0
24317.875,102.536,-4720.14,0,0
25619.5,96.6718,-4477.6,0,0
26921.1,94.8205,-4260.19,0,0
28222.7,90.1189,-4061.31,0,0
29524.4,93.3971,-3877.88,0,0
30826,88.0724,-3723.91,0,0
32127.6,82.0697,-3571.25,0,0
33429.2,79.648,-3432.86,0,0
34730.9,75.553,-3302.66,0,0
36032.5,72.8288,-3181.68,0,0
37334.1,71.0571,-3068.54,0,0
38635.7,68.7419,-2963.66,0,0
39937.4,67.0519,-2865.33,0,0
41239,65.5782,-2772.6,0,0
42540.6,64.4311,-2686.61,0,0
43842.225,63.2698,-2604.7,0,0
45143.85,61.8572,-2527.34,0,0
46445.475,61.2648,-2455.21,0,0
47747.1,60.8414,-2386.16,0,0
49048.725,60.7309,-2322.3,0,0
50350.35,57.9689,-2260.31,0,0
51651.975,56.8735,-2201.45,0,0
52953.6,55.1727,-2144.43,0,0
54255.225,54.423,-2089.92,0,0
55556.85,54.0818,-2038.12,0,0
56858.475,53.8777,-1988.4,0,0
58160.1,54.2939,-1941.29,0,0
59461.7,54.6721,-1895.62,0,0
60763.3,55.9466,-1853.11,0,0
62065,59.0176,-1815.04,0,0
63366.6,56.197,-1778.25,0,0
64668.2,53.0503,-1740.5,0,0
65969.8,50.756,-1701.64,0,0
67271.5,51.2953,-1664.06,0,0
68573.1,53.5436,-1630.3,0,0
69874.7,56.0452,-1599.9,0,0
71176.3,53.0587,-1571.88,0,0
72478,47.8042,-1541.67,0,0
73779.6,45.3767,-1508.8,0,0
75081.2,45.2479,-1476.75,0,0
76382.825,47.0074,-1446.54,0,0
77684.45,49.6348,-1418.33,0,0
78986.075,53.1192,-1393.9,0,0
80287.7,52.0649,-1372.7,0,0
81589.325,49.393,-1347.76,0,0
82890.95,48.095,-1322.28,0,0
84192.575,48.868,-1297.38,0,0
85494.2,49.5691,-1274.06,0,0
86795.825,50.2611,-1251.98,0,0
88097.45,50.8744,-1230.85,0,0
89399.075,50.9928,-1209.25,0,0
90700.7,51.5515,-1189.05,0,0
92002.3,52.8754,-1167.91,0,0
93303.9,55.9856,-1149.47,0,0
94605.6,55.1897,-1133.22,0,0
95907.2,54.5195,-1113.25,0,0
97208.8,57.3178,-1096.51,0,0
98510.4,57.7702,-1082.45,0,0
99812.1,53.4169,-1068.51,0,0
101114,50.2032,-1050.3,0,0
102415,47.5392,-1030.34,0,0
103717,46.2692,-1009.61,0,0
105019,49.4401,-989.4,0,0
106320.175,54.3514,-972.293,0,0
107621.8,57.6315,-960.314,0,0
108923.425,56.4151,-948.511,0,0
110225.05,53.0004,-933.44,0,0
111526.675,51.8083,-915.966,0,0
112828.3,51.9562,-898.583,0,0
114129.925,53.604,-881.267,0,0
115431.55,55.9803,-865.039,0,0
116733.175,59.0569,-849.327,0,0
118034.8,62.8407,-834.971,0,0
119336.425,66.7648,-822.267,0,0
120638.05,69.8298,-811.94,0,0
121939.675,69.2771,-800.699,0,0
123241,69.0051,-787.808,0,0
124543,68.9281,-774.671,0,0
125845,68.7757,-760.472,0,0
127146,69.834,-745.277,0,0
128448,72.7434,-730.41,0,0
129749,76.2189,-717.05,0,0
131051,79.3772,-704.933,0,0
132353,81.3362,-693.323,0,0
133654,82.2159,-680.729,0,0
134956,83.4114,-667.117,0,0
136258,84.9035,-652.996,0,0
137559,87.3967,-638.157,0,0
138860.775,89.7219,-623.29,0,0
140162.4,92.2892,-606.905,0,0
141464.025,97.2217,-588.592,0,0
142765.65,105.765,-570.901,0,0
144067.275,115.11,-555.127,0,0
145368.9,125.869,-539.52,0,0
146670.525,137.282,-524.556,0,0
147972.15,151.916,-508.617,0,0
149273.775,171.602,-493.34,0,0
150575.4,199.179,-486.846,0,0
151877.025,224.333,-493.69,0,0
153178.65,237.877,-508.282,0,0
154480,239.971,-520.093,0,0
155782,238.404,-525.603,0,0
157084,234.865,-528.124,0,0
158385,231.127,-526.326,0,0
159687,226.982,-520.855,0,0
160988,228.455,-512.874,0,0
162290,236.577,-509.069,0,0
163592,235.758,-518.441,0,0
164893,221.154,-519.084,0,0
166195,205.068,-506.793,0,0
167497,196.981,-487.869,0,0
168798,192.238,-466.404,0,0
170100,194.517,-444.076,0,0
171401.375,197.384,-422.477,0,0
172703.0,205.022,-398.838,0,0
174004.625,216.897,-375.07,0,0
175306.25,234.371,-351.431,0,0
176607.875,256.375,-333.516,0,0
177909.5,284.436,-321.774,0,0
179211.125,304.672,-318.172,0,0
180512.75,317.528,-318.832,0,0
181814.375,321.621,-305.726,0,0
183116.0,335.544,-283.405,0,0
184417.625,358.34,-259.959,0,0
185719.25,392.931,-237.631,0,0
187021,433.055,-228.933,0,0
188322,473.291,-220.785,0,0
189624,513.001,-217.362,0,0
190926,556.776,-212.346,0,0
192227,615.886,-213.082,0,0
193529,684.77,-229.933,0,0
194831,748.583,-272.047,0,0
196132,802.465,-327.091,0,0
197434,844.514,-391.653,0,0
198735,873.856,-465.163,0,0
200037,886.177,-550.011,0,0
201339,880.131,-634.488,0,0
202640.35,848.373,-717.221,0,0
203941.975,795.862,-776.755,0,0
205243.6,746.89,-815.632,0,0
206545.225,694.167,-847.536,0,0
207846.85,645.277,-863.974,0,0
209148.475,605.538,-873.144,0,0
210450.1,565.76,-887.744,0,0
211751.725,518.321,-893.468,0,0
213053.35,476.51,-884.158,0,0
214354.975,443.497,-870.481,0,0
215656.6,417.898,-856.242,0,0
216958.225,396.618,-840.633,0,0
218259.85,381.242,-824.91,0,0
219561,370.78,-810.947,0,0
220863,362.736,-800.332,0,0
222165,356.734,-789.572,0,0
223466,355.066,-782.775,0,0
224768,352.067,-780.313,0,0
226070,348.4,-778.444,0,0
227371,346.296,-778.5,0,0
228673,343.621,-782.24,0,0
229974,337.793,-790.239,0,0
231276,325.955,-798.567,0,0
232578,310.04,-803.193,0,0
233879,293.43,-804.609,0,0
235180.95,277.33,-804.106,0,0
236482.575,260.175,-801.591,0,0
237784.2,243.272,-796.682,0,0
239085.825,227.573,-788.963,0,0
240387.45,213.517,-779.728,0,0
241689.075,201.755,-769.148,0,0
242990.7,192.851,-758.815,0,0
244292.325,185.953,-750.494,0,0
245593.95,177.871,-744.713,0,0
246895.575,166.724,-739.753,0,0
248197.2,152.641,-730.283,0,0
249498.825,140.377,-717.203,0,0
250800,130.776,-701.431,0,0
252102,124.756,-684.677,0,0
253404,121.642,-668.26,0,0
254705,120.433,-652.556,0,0
256007,121.266,-637.157,0,0
257309,124.67,-622.601,0,0
258610,130.325,-610.049,0,0
259912,136.895,-599.339,0,0
261213,145.062,-590.62,0,0
262515,153.89,-584.823,0,0
263817,162.238,-581.482,0,0
265118,169.927,-581.386,0,0
266420,174.013,-582.682,0,0
267721.55,177.096,-582.957,0,0
269023.175,178.527,-584.483,0,0
270324.8,176.915,-582.84,0,0
271626.425,178.778,-577.517,0,0
272928.05,184.382,-573.306,0,0
274229.675,194.225,-570.544,0,0
275531.3,207.979,-576.536,0,0
276832.925,215.672,-592.485,0,0
278134.55,211.502,-609.835,0,0
279436.175,201.114,-621.005,0,0
280737.8,189.611,-628.059,0,0
282039.425,176.416,-632.681,0,0
283341,160.785,-632.907,0,0
284643,148.727,-627.128,0,0
285944,137.086,-623.308,0,0
287246,123.812,-613.966,0,0
288548,114.373,-597.652,0,0
289849,115.272,-577.916,0,0
291151,127.467,-564.457,0,0
292452,141.092,-563.498,0,0
293754,148.461,-570.817,0,0
295056,145.593,-575.558,0,0
296357,149.317,-575.657,0,0
297659,149.513,-587.026,0,0
298960.525,139.345,-593.363,0,0
300262.15,130.039,-593.989,0,0
301563.775,121.449,-591.822,0,0
302865.4,116.49,-588.037,0,0
304167.025,112.609,-587.766,0,0
305468.65,105.541,-588.09,0,0
306770.275,96.4709,-585.702,0,0
308071.9,88.4738,-580.498,0,0
309373.525,82.1183,-574.585,0,0
310675.15,76.6528,-568.226,0,0
311976.775,72.113,-561.453,0,0
313278.4,68.7733,-554.808,0,0
314580,65.8395,-548.566,0,0
315882,63.1767,-542.325,0,0
317183,60.9678,-535.842,0,0
318485,59.6833,-529.495,0,0
319787,58.774,-523.811,0,0
321088,57.6992,-518.297,0,0
322390,56.803,-512.745,0,0
323691,55.9971,-506.949,0,0
324993,55.8902,-500.268,0,0
326295,57.9658,-493.948,0,0
327596,61.1786,-489.884,0,0
328898,63.3797,-487.498,0,0
330200,65.0387,-485.646,0,0
331501.125,66.0047,-484.763,0,0
332802.75,65.4601,-484.416,0,0
334104.375,63.3574,-483.285,0,0
335406.0,61.0755,-480.843,0,0
336707.625,58.9485,-477.595,0,0
338009.25,57.0655,-473.817,0,0
339310.875,55.8556,-469.79,0,0
340612.5,54.8914,-465.596,0,0
341914.125,54.2738,-461.356,0,0
343215.75,54.0127,-456.983,0,0
344517.375,54.241,-452.54,0,0
345819.0,54.9496,-448.283,0,0
347121,56.0297,-444.353,0,0
348422,57.4327,-440.779,0,0
349724,59.1544,-437.54,0,0
351025,61.038,-435.096,0,0
352327,62.3732,-433.152,0,0
353629,63.467,-431.055,0,0
354930,64.6736,-429,0,0
356232,66.0137,-427.113,0,0
357534,67.3878,-425.431,0,0
358835,69.1149,-424.083,0,0
360137,70.8121,-423.745,0,0
361438,71.5886,-424.025,0,0
362740.1,71.5296,-424.22,0,0
364041.725,70.9958,-424.149,0,0
365343.35,70.0299,-423.673,0,0
366644.975,69.0429,-422.657,0,0
367946.6,68.4905,-421.249,0,0
369248.225,68.4172,-420.26,0,0
370549.85,67.8849,-420.096,0,0
371851.475,66.529,-419.373,0,0
373153.1,65.4144,-418.487,0,0
374454.725,64.1163,-417.689,0,0
375756.35,62.4542,-416.691,0,0
377057.975,60.7125,-415.247,0,0
378359.6,59.3859,-414.167,0,0
379661,56.4323,-413.033,0,0
380963,53.9166,-409.462,0,0
382264,53.7459,-406.624,0,0
383566,52.6103,-405.292,0,0
384868,50.6229,-403.313,0,0
386169,48.7139,-400.562,0,0
387471,47.0208,-397.462,0,0
388773,45.7932,-393.928,0,0
390074,45.3382,-390.32,0,0
391376,45.7227,-387.516,0,0
392677,45.2028,-385.821,0,0
393979,43.5907,-383.529,0,0
395280.7,41.9312,-379.987,0,0
396582.325,41.2009,-375.895,0,0
397883.95,41.2144,-371.876,0,0
399185.575,41.7255,-368.151,0,0
400006.6,42.1814,-366.019,0,0