Folder: ML_Dmg_Mehdi_Dataset/Accelerated corrosion test data/2025-10-04_06-00-03 (part 2)

File: sample_3.csv
Frequency (Hz),Impedance (ohms),Phase (Radians),Temperature (C),Humidity (%)
10000.0,251.138,-11758.7,0,0
11301.625,224.253,-10415.9,0,0
12603.25,203.052,-9347.78,0,0
13904.875,185.549,-8477.7,0,0
15206.5,172.982,-7750.55,0,0
16508.125,162.122,-7156.66,0,0
17809.75,158.646,-6628.57,0,0
19111.375,146.787,-6178.56,0,0
20413.0,157.213,-5777.52,0,0
21714.625,138.399,-5459.23,0,0
23016.25,128.063,-5153.81,0,0
24317.875,119.151,-4875.57,0,0
25619.5,113.888,-4629.42,0,0
26921.1,108.641,-4399.87,0,0
28222.7,103.879,-4193.63,0,0
29524.4,110.466,-4015.41,0,0
30826,101.018,-3844.93,0,0
32127.6,101.313,-3681.54,0,0
33429.2,99.7931,-3556.67,0,0
34730.9,88.0306,-3419.32,0,0
36032.5,83.3257,-3291.9,0,0
37334.1,80.5656,-3174.47,0,0
38635.7,78.3395,-3064.85,0,0
39937.4,75.8079,-2962.48,0,0
41239,74.561,-2865.85,0,0
42540.6,73.8312,-2776.53,0,0
43842.225,72.1847,-2691.22,0,0
45143.85,70.9606,-2611.8,0,0
46445.475,70.0023,-2536.01,0,0
47747.1,70.4273,-2463.55,0,0
49048.725,68.781,-2398.7,0,0
50350.35,66.8985,-2333.58,0,0
51651.975,66.5274,-2271.07,0,0
52953.6,66.8851,-2211.38,0,0
54255.225,69.5385,-2156.85,0,0
55556.85,67.1163,-2109.74,0,0
56858.475,61.8769,-2056.9,0,0
58160.1,61.5415,-2004.9,0,0
59461.7,62.0519,-1955.87,0,0
60763.3,63.3421,-1909.31,0,0
62065,65.6454,-1864.76,0,0
63366.6,69.1623,-1821.47,0,0
64668.2,77.7119,-1779.62,0,0
65969.8,92.2609,-1754.15,0,0
67271.5,76.5724,-1729.25,0,0
68573.1,76.5351,-1692.15,0,0
69874.7,75.9587,-1662.82,0,0
71176.3,70.6376,-1632.19,0,0
72478,69.2189,-1599.65,0,0
73779.6,67.5578,-1571.22,0,0
75081.2,63.9599,-1542.94,0,0
76382.825,60.5238,-1513.64,0,0
77684.45,58.1175,-1484.76,0,0
78986.075,56.0334,-1456.38,0,0
80287.7,54.5221,-1428.43,0,0
81589.325,53.5311,-1401.25,0,0
82890.95,53.0043,-1374.9,0,0
84192.575,52.7584,-1349.18,0,0
85494.2,52.6967,-1324.25,0,0
86795.825,52.9433,-1300.05,0,0
88097.45,53.4811,-1276.09,0,0
89399.075,54.7941,-1252.29,0,0
90700.7,57.1383,-1230.38,0,0
92002.3,59.9739,-1209.55,0,0
93303.9,63.2532,-1191.06,0,0
94605.6,64.7991,-1176.71,0,0
95907.2,59.0692,-1159.6,0,0
97208.8,58.0181,-1138.45,0,0
98510.4,57.9183,-1119.49,0,0
99812.1,57.1003,-1101.02,0,0
101114,56.2084,-1081.45,0,0
102415,57.4071,-1060.85,0,0
103717,61.2843,-1043.15,0,0
105019,64.9849,-1029.43,0,0
106320.175,63.5207,-1016.4,0,0
107621.8,60.4912,-1000.41,0,0
108923.425,58.6496,-982.484,0,0
110225.05,58.7194,-963.567,0,0
111526.675,61.2555,-945.78,0,0
112828.3,63.3294,-929.585,0,0
114129.925,64.9475,-913.409,0,0
115431.55,67.3401,-896.816,0,0
116733.175,71.1851,-880.426,0,0
118034.8,76.8494,-864.857,0,0
119336.425,83.6764,-853.263,0,0
120638.05,88.7148,-847.052,0,0
121939.675,86.598,-838.147,0,0
123241,86.9549,-825.273,0,0
124543,88.2416,-814.113,0,0
125845,89.1067,-803.916,0,0
127146,88.3542,-794.041,0,0
128448,86.32,-782.915,0,0
129749,84.7418,-769.495,0,0
131051,85.8969,-756.318,0,0
132353,85.408,-745.153,0,0
133654,84.8011,-732.976,0,0
134956,83.4897,-720.433,0,0
136258,82.2335,-706.7,0,0
137559,82.2168,-691.643,0,0
138860.775,83.6421,-678.229,0,0
140162.4,82.8869,-664.669,0,0
141464.025,82.9063,-650.185,0,0
142765.65,82.3631,-634.525,0,0
144067.275,82.7872,-617.322,0,0
145368.9,84.4033,-599.506,0,0
146670.525,87.0642,-580.558,0,0
147972.15,91.6426,-560.883,0,0
149273.775,98.2969,-540.572,0,0
150575.4,108.566,-520.131,0,0
151877.025,121.622,-503.375,0,0
153178.65,134.526,-489.64,0,0
154480,144.855,-477.278,0,0
155782,153.401,-461.603,0,0
157084,164.988,-444.761,0,0
158385,180.763,-431.838,0,0
159687,188.372,-417.163,0,0
160988,202.433,-389.551,0,0
162290,229.646,-363.798,0,0
163592,269.016,-345.469,0,0
164893,315.265,-337.617,0,0
166195,367.683,-352.441,0,0
167497,403.914,-384.245,0,0
168798,422.704,-422.593,0,0
170100,425.284,-461.25,0,0
171401.375,408.059,-479.284,0,0
172703.0,402.981,-481.778,0,0
174004.625,410.151,-486.405,0,0
175306.25,415.447,-506.49,0,0
176607.875,406.169,-527.016,0,0
177909.5,387.807,-541.537,0,0
179211.125,363.517,-534.973,0,0
180512.75,356.465,-520.036,0,0
181814.375,361.382,-515.615,0,0
183116.0,354.258,-523.402,0,0
184417.625,340.209,-518.073,0,0
185719.25,328.283,-504.594,0,0
187021,322.703,-482.642,0,0
188322,329.267,-463.376,0,0
189624,335.985,-450.235,0,0
190926,345.725,-436.047,0,0
192227,354.633,-422.612,0,0
193529,366.171,-405.553,0,0
194831,389.617,-386.335,0,0
196132,422.278,-385.254,0,0
197434,445.84,-396.337,0,0
198735,456.576,-405.936,0,0
200037,465.179,-406.595,0,0
201339,471.873,-404.788,0,0
202640.35,486.391,-394.919,0,0
203941.975,515.942,-389.861,0,0
205243.6,547.27,-400.323,0,0
206545.225,563.666,-418.916,0,0
207846.85,579.939,-423.542,0,0
209148.475,607.589,-429.334,0,0
210450.1,640.993,-449.15,0,0
211751.725,668.542,-478.791,0,0
213053.35,690.563,-513.314,0,0
214354.975,707.324,-555.305,0,0
215656.6,715.298,-599.892,0,0
216958.225,716.631,-648.276,0,0
218259.85,702.481,-696.063,0,0
219561,679.807,-735.265,0,0
220863,661.559,-770.271,0,0
222165,629.155,-808.388,0,0
223466,585.97,-834.317,0,0
224768,542.858,-838.348,0,0
226070,518.926,-834.22,0,0
227371,502.311,-842.673,0,0
228673,478.749,-854.572,0,0
229974,449.346,-862.204,0,0
231276,419.743,-864.073,0,0
232578,393.126,-860.984,0,0
233879,368.843,-856.961,0,0
235180.95,345.787,-852.409,0,0
236482.575,321.529,-847.089,0,0
237784.2,297.172,-837.517,0,0
239085.825,273.755,-823.212,0,0
240387.45,255.959,-804.642,0,0
241689.075,243.264,-786.429,0,0
242990.7,234.723,-768.231,0,0
244292.325,230.379,-752.786,0,0
245593.95,225.93,-741.174,0,0
246895.575,221.333,-729.65,0,0
248197.2,217.191,-718.074,0,0
249498.825,216.228,-707.106,0,0
250800,215.107,-700.348,0,0
252102,209.64,-694.742,0,0
253404,201.624,-684.501,0,0
254705,197.149,-669.417,0,0
256007,197.85,-652.694,0,0
257309,205.718,-638.619,0,0
258610,215.208,-630.81,0,0
259912,225.517,-623.672,0,0
261213,240.163,-624.014,0,0
262515,251.374,-635.007,0,0
263817,250.862,-649.774,0,0
265118,241.914,-661.381,0,0
266420,226.948,-665.844,0,0
267721.55,212.458,-661.874,0,0
269023.175,202.728,-653.093,0,0
270324.8,197.7,-643.236,0,0
271626.425,195.737,-634.165,0,0
272928.05,196.317,-626.764,0,0
274229.675,196.375,-620.713,0,0
275531.3,199.034,-613.583,0,0
276832.925,205.662,-608.886,0,0
278134.55,213.554,-611.024,0,0
279436.175,216.757,-618.898,0,0
280737.8,212.487,-626.686,0,0
282039.425,205.472,-630.486,0,0
283341,196.792,-632.01,0,0
284643,188.118,-629.948,0,0
285944,180.22,-625.738,0,0
287246,174.35,-618.502,0,0
288548,173.067,-610.885,0,0
289849,174.098,-607.064,0,0
291151,173.463,-605.356,0,0
292452,170.986,-603.27,0,0
293754,169.407,-599.089,0,0
295056,170.981,-595.58,0,0
296357,173.643,-596.147,0,0
297659,173.399,-599.637,0,0
298960.525,169.365,-603.342,0,0
300262.15,163.327,-604.943,0,0
301563.775,156.458,-604.886,0,0
302865.4,149.346,-602.777,0,0
304167.025,143.084,-599.261,0,0
305468.65,137.698,-594.713,0,0
306770.275,133.435,-589.63,0,0
308071.9,130.86,-584.445,0,0
309373.525,129.17,-581.043,0,0
310675.15,126.225,-578.526,0,0
311976.775,122.409,-575.423,0,0
313278.4,117.851,-571.202,0,0
314580,114.262,-564.894,0,0
315882,113.221,-557.964,0,0
317183,114.314,-552.833,0,0
318485,115.294,-549.977,0,0
319787,115.157,-547.562,0,0
321088,114.84,-544.922,0,0
322390,115.316,-542.901,0,0
323691,115.724,-542.591,0,0
324993,114.109,-543.321,0,0
326295,110.886,-543.566,0,0
327596,106.646,-542.641,0,0
328898,102.433,-540.458,0,0
330200,98.5477,-537.969,0,0
331501.125,94.3581,-535.207,0,0
332802.75,89.8737,-531.609,0,0
334104.375,85.5971,-527.072,0,0
335406.0,81.7465,-521.468,0,0
336707.625,79.1633,-515.267,0,0
338009.25,77.4956,-509.232,0,0
339310.875,76.2869,-502.879,0,0
340612.5,76.5673,-496.145,0,0
341914.125,78.6568,-490.547,0,0
343215.75,81.1616,-487.069,0,0
344517.375,82.7003,-485.154,0,0
345819.0,82.891,-483.449,0,0
347121,82.3591,-481.268,0,0
348422,81.6425,-478.487,0,0
349724,81.3268,-475.094,0,0
351025,82.2599,-471.754,0,0
352327,83.614,-470.118,0,0
353629,83.6108,-469.757,0,0
354930,81.8089,-468.807,0,0
356232,79.8222,-466.384,0,0
357534,78.3643,-463.512,0,0
358835,77.0487,-460.126,0,0
360137,76.5193,-456.543,0,0
361438,76.5947,-453.112,0,0
362740.1,76.7639,-450.098,0,0
364041.725,77.4465,-446.955,0,0
365343.35,78.9959,-445.027,0,0
366644.975,79.413,-444.88,0,0
367946.6,77.5631,-444.419,0,0
369248.225,74.6932,-441.501,0,0
370549.85,74.2737,-436.596,0,0
371851.475,76.1202,-433.84,0,0
373153.1,76.6487,-433.248,0,0
374454.725,75.1747,-432.231,0,0
375756.35,73.3298,-429.514,0,0
377057.975,72.5133,-425.768,0,0
378359.6,72.9694,-422.352,0,0
379661,73.8435,-419.609,0,0
380963,74.65,-417.691,0,0
382264,75.2652,-416.185,0,0
383566,75.2256,-415.202,0,0
384868,74.3052,-413.945,0,0
386169,72.9515,-411.911,0,0
387471,71.8447,-409.192,0,0
388773,70.9054,-406.083,0,0
390074,70.4912,-402.327,0,0
391376,71.1194,-398.33,0,0
392677,72.8855,-394.756,0,0
393979,75.3283,-392.265,0,0
395280.7,77.8202,-390.972,0,0
396582.325,79.7789,-390.69,0,0
397883.95,80.8958,-391.211,0,0
399185.575,80.6101,-391.886,0,0
400006.6,80.0017,-391.886,0,0

File: sample_4.csv
Frequency (Hz),Impedance (ohms),Phase (Radians),Temperature (C),Humidity (%)
10000.0,262.238,-11843.6,0,0
11301.625,233.263,-10493.1,0,0
12603.25,211.56,-9413.93,0,0
13904.875,192.771,-8535.21,0,0
15206.5,180.529,-7811.69,0,0
16508.125,185.911,-7196.73,0,0
17809.75,155.931,-6693.12,0,0
19111.375,144.995,-6237.93,0,0
20413.0,140.935,-5838.52,0,0
21714.625,144.511,-5492.93,0,0
23016.25,124.951,-5194.5,0,0
24317.875,116.24,-4910.79,0,0
25619.5,112.41,-4658.19,0,0
26921.1,106.718,-4429.37,0,0
28222.7,119.603,-4224.24,0,0
29524.4,113.145,-4048.8,0,0
30826,99.3055,-3876.07,0,0
32127.6,99.1252,-3716.43,0,0
33429.2,89.8794,-3575.9,0,0
34730.9,85.0087,-3437.92,0,0
36032.5,82.2129,-3310.84,0,0
37334.1,79.6978,-3192.35,0,0
38635.7,77.2981,-3080.81,0,0
39937.4,76.9955,-2975.51,0,0
41239,79.4655,-2880.15,0,0
42540.6,78.8595,-2793.97,0,0
43842.225,73.9731,-2710.22,0,0
45143.85,71.3139,-2629.23,0,0
46445.475,70.6514,-2552.26,0,0
47747.1,69.8565,-2482.58,0,0
49048.725,66.1303,-2413.65,0,0
50350.35,64.7473,-2346.56,0,0
51651.975,64.2987,-2281.78,0,0
52953.6,66.238,-2219.09,0,0
54255.225,73.8069,-2162.97,0,0
55556.85,71.8196,-2119.62,0,0
56858.475,65.8378,-2066.31,0,0
58160.1,66.8153,-2013.86,0,0
59461.7,71.0875,-1963.32,0,0
60763.3,80.6912,-1925.72,0,0
62065,70.2156,-1892.8,0,0
63366.6,64.8072,-1847.03,0,0
64668.2,64.6948,-1803.88,0,0
65969.8,66.6078,-1763.55,0,0
67271.5,70.3913,-1727.65,0,0
68573.1,73.8121,-1698.9,0,0
69874.7,66.3752,-1668.66,0,0
71176.3,65.3309,-1634.64,0,0
72478,59.1901,-1603.34,0,0
73779.6,57.9205,-1566.81,0,0
75081.2,59.9994,-1534.3,0,0
76382.825,62.4084,-1505.6,0,0
77684.45,65.2369,-1477.68,0,0
78986.075,64.0061,-1455.39,0,0
80287.7,60.9796,-1428.49,0,0
81589.325,60.3921,-1402.61,0,0
82890.95,59.1602,-1377.57,0,0
84192.575,57.9871,-1352.77,0,0
85494.2,57.1745,-1328.6,0,0
86795.825,56.5787,-1304.95,0,0
88097.45,55.2068,-1282.49,0,0
89399.075,53.6606,-1258.19,0,0
90700.7,53.6238,-1235.17,0,0
92002.3,53.8628,-1212.1,0,0
93303.9,55.2217,-1191.47,0,0
94605.6,53.8377,-1171.07,0,0
95907.2,53.2816,-1148.69,0,0
97208.8,54.0769,-1127.13,0,0
98510.4,55.3031,-1105.84,0,0
99812.1,57.9753,-1085.2,0,0
101114,62.1175,-1066.62,0,0
102415,61.1321,-1052.12,0,0
103717,58.2619,-1029.7,0,0
105019,61.9043,-1006.16,0,0
106320.175,68.3226,-986.034,0,0
107621.8,74.8278,-968.042,0,0
108923.425,82.9324,-951.128,0,0
110225.05,90.8128,-938.213,0,0
111526.675,97.1895,-926.842,0,0
112828.3,102.629,-916.729,0,0
114129.925,106.561,-908.065,0,0
115431.55,108.846,-900.192,0,0
116733.175,108.578,-892.185,0,0
118034.8,106.331,-881.685,0,0
119336.425,107.355,-867.814,0,0
120638.05,112.421,-862.81,0,0
121939.675,105.306,-856.702,0,0
123241,100.193,-844.41,0,0
124543,97.1666,-831.973,0,0
125845,94.7259,-819.352,0,0
127146,91.5422,-808.398,0,0
128448,86.8024,-796.1,0,0
129749,80.5254,-781.535,0,0
131051,75.9044,-763.935,0,0
132353,73.5016,-745.298,0,0
133654,72.7125,-726.478,0,0
134956,73.3701,-707.676,0,0
136258,75.5888,-689.33,0,0
137559,78.4434,-671.955,0,0
138860.775,80.381,-654.426,0,0
140162.4,83.533,-635.586,0,0
141464.025,88.6061,-616.576,0,0
142765.65,94.6113,-598.47,0,0
144067.275,101.135,-580.153,0,0
145368.9,109.015,-561.577,0,0
146670.525,118.421,-543.06,0,0
147972.15,129.27,-525.068,0,0
149273.775,141.717,-506.803,0,0
150575.4,156.914,-489.207,0,0
151877.025,175.847,-473.295,0,0
153178.65,197.625,-461.383,0,0
154480,218.756,-456.462,0,0
155782,235.598,-452.544,0,0
157084,251.05,-450.415,0,0
158385,265.547,-444.721,0,0
159687,286.414,-442.081,0,0
160988,304.551,-448.891,0,0
162290,311.144,-456.497,0,0
163592,315.51,-455.2,0,0
164893,325.338,-447.644,0,0
166195,341.738,-442.657,0,0
167497,367.163,-441.439,0,0
168798,395.78,-458.648,0,0
170100,410.743,-488.493,0,0
171401.375,407.157,-525.754,0,0
172703.0,382.41,-550.803,0,0
174004.625,348.857,-555.961,0,0
175306.25,321.802,-544.176,0,0
176607.875,304.055,-523.071,0,0
177909.5,297.519,-499.489,0,0
179211.125,297.544,-479.136,0,0
180512.75,300.431,-460.625,0,0
181814.375,304.329,-443.795,0,0
183116.0,307.634,-426.449,0,0
184417.625,312.294,-405.442,0,0
185719.25,320.7,-381.967,0,0
187021,334.3,-356.47,0,0
188322,353.392,-329.874,0,0
189624,379.526,-303.279,0,0
190926,414.301,-278.277,0,0
192227,457.83,-259.078,0,0
193529,507.869,-248,0,0
194831,561.691,-245.526,0,0
196132,619.093,-251.787,0,0
197434,681.86,-267.256,0,0
198735,749.778,-300.875,0,0
200037,812.621,-359.074,0,0
201339,854.837,-437.236,0,0
202640.35,869.407,-521.448,0,0
203941.975,863.323,-596.084,0,0
205243.6,846.301,-664.32,0,0
206545.225,819.177,-725.365,0,0
207846.85,784.366,-782.126,0,0
209148.475,731.583,-827.501,0,0
210450.1,676.054,-848.246,0,0
211751.725,629.489,-855.769,0,0
213053.35,591.727,-853.455,0,0
214354.975,566.053,-847.162,0,0
215656.6,551.81,-847.472,0,0
216958.225,535.326,-855.979,0,0
218259.85,514.091,-864.602,0,0
219561,492.373,-869.331,0,0
220863,471.359,-875.977,0,0
222165,447.205,-880.931,0,0
223466,423.606,-882.2,0,0
224768,400.294,-883.701,0,0
226070,374.382,-884.676,0,0
227371,345.711,-879.955,0,0
228673,317.897,-870.559,0,0
229974,293.081,-854.656,0,0
231276,274.941,-835.877,0,0
232578,261.339,-818.132,0,0
233879,251.031,-800.744,0,0
235180.95,243.741,-784.923,0,0
236482.575,237.99,-770.892,0,0
237784.2,233.376,-757.16,0,0
239085.825,231.769,-744.961,0,0
240387.45,230.646,-736.02,0,0
241689.075,228.479,-729.516,0,0
242990.7,224.739,-723.697,0,0
244292.325,219.623,-717.85,0,0
245593.95,212.893,-710.684,0,0
246895.575,206.995,-700.823,0,0
248197.2,203.953,-690.612,0,0
249498.825,201.463,-682.544,0,0
250800,198.167,-674.436,0,0
252102,194.277,-667.273,0,0
253404,187.423,-657.473,0,0
254705,183.022,-643.165,0,0
256007,181.343,-626.966,0,0
257309,184.523,-608.828,0,0
258610,192.626,-591.534,0,0
259912,206.822,-575.88,0,0
261213,226.162,-566.214,0,0
262515,246.883,-564.313,0,0
263817,267.389,-568.684,0,0
265118,284.95,-580.188,0,0
266420,298.399,-597.604,0,0
267721.55,302.527,-620.299,0,0
269023.175,298.103,-640.725,0,0
270324.8,284.586,-657.729,0,0
271626.425,271.855,-662.867,0,0
272928.05,263.769,-670.166,0,0
274229.675,251.879,-678.442,0,0
275531.3,235.048,-685.468,0,0
276832.925,214.082,-684.844,0,0
278134.55,195.44,-675.365,0,0
279436.175,184.215,-660.456,0,0
280737.8,182.189,-647.785,0,0
282039.425,180.603,-640.808,0,0
283341,179.227,-632.871,0,0
284643,179.91,-629.463,0,0
285944,177.529,-626.966,0,0
287246,171.859,-623.917,0,0
288548,165.724,-614.565,0,0
289849,167.04,-601.09,0,0
291151,176.996,-592.299,0,0
292452,188.825,-592.623,0,0
293754,197.905,-600.533,0,0
295056,198.587,-613.844,0,0
296357,190.145,-624.519,0,0
297659,178.418,-628.414,0,0
298960.525,168.329,-627.75,0,0
300262.15,160.064,-625.974,0,0
301563.775,151.651,-623.63,0,0
302865.4,143.83,-619.24,0,0
304167.025,137.182,-614.079,0,0
305468.65,131.899,-608.025,0,0
306770.275,128.44,-601.92,0,0
308071.9,126.128,-597.002,0,0
309373.525,123.773,-593.223,0,0
310675.15,120.933,-589.748,0,0
311976.775,117.484,-586.103,0,0
313278.4,114.387,-581.588,0,0
314580,112.201,-576.91,0,0
315882,110.871,-572.947,0,0
317183,109.777,-569.924,0,0
318485,108.378,-567.977,0,0
319787,105.72,-566.84,0,0
321088,101.87,-565.799,0,0
322390,95.838,-563.959,0,0
323691,88.8238,-558.899,0,0
324993,84.2175,-551.713,0,0
326295,81.3984,-544.898,0,0
327596,79.0041,-538.241,0,0
328898,77.3676,-531.246,0,0
330200,77.2974,-524.229,0,0
331501.125,78.5986,-518.473,0,0
332802.75,79.738,-514.598,0,0
334104.375,79.8378,-511.67,0,0
335406.0,78.6084,-508.435,0,0
336707.625,76.8416,-504.373,0,0
338009.25,75.1801,-498.892,0,0
339310.875,74.9717,-492.504,0,0
340612.5,76.237,-486.209,0,0
341914.125,79.2903,-480.428,0,0
343215.75,83.8072,-476.848,0,0
344517.375,87.6727,-476.298,0,0
345819.0,89.2462,-476.906,0,0
347121,89.1908,-477.25,0,0
348422,87.796,-476.997,0,0
349724,85.8469,-475.851,0,0
351025,83.6699,-473.632,0,0
352327,81.7431,-470.458,0,0
353629,80.5909,-466.503,0,0
354930,80.8815,-462.818,0,0
356232,81.2009,-460.401,0,0
357534,80.8757,-458.35,0,0
358835,79.4152,-456.149,0,0
360137,77.8906,-452.143,0,0
361438,77.835,-447.828,0,0
362740.1,78.4673,-443.85,0,0
364041.725,79.6068,-440.729,0,0
365343.35,79.7995,-438.075,0,0
366644.975,79.7639,-434.098,0,0
367946.6,80.9301,-429.312,0,0
369248.225,83.9957,-424.653,0,0
370549.85,88.623,-421.518,0,0
371851.475,94.0789,-420.421,0,0
373153.1,98.8886,-422.445,0,0
374454.725,100.613,-426.022,0,0
375756.35,100.006,-428.368,0,0
377057.975,99.0986,-429.633,0,0
378359.6,97.8051,-430.417,0,0
379661,96.5163,-430.685,0,0
380963,95.0641,-430.787,0,0
382264,93.7007,-430.108,0,0
383566,93.8287,-430.115,0,0
384868,92.2887,-432.608,0,0
386169,87.7684,-433.853,0,0
387471,82.4416,-432.483,0,0
388773,78.3582,-428.352,0,0
390074,77.4028,-424.003,0,0
391376,78.0803,-421.932,0,0
392677,77.0215,-422.446,0,0
393979,73.1501,-422.258,0,0
395280.7,68.665,-419.597,0,0
396582.325,65.1252,-415.503,0,0
397883.95,62.7035,-410.82,0,0
399185.575,61.0188,-406.065,0,0
400006.6,60.2329,-402.965,0,0