Folder: ML_Dmg_Mehdi_Dataset/Accelerated corrosion test data/2025-10-10_06-00-03 (part 3)

File: sample_6.csv
Frequency (Hz),Impedance (ohms),Phase (Radians),Temperature (C),Humidity (%)
10000.0,4214.9,-6570.81,0,0
11301.625,3584.84,-6188.08,0,0
12603.25,3084.72,-5821.95,0,0
13904.875,2679.46,-5486.32,0,0
15206.5,2348.11,-5172.48,0,0
16508.125,2075.23,-4886.37,0,0
17809.75,1847.65,-4625.26,0,0
19111.375,1657.99,-4385.22,0,0
20413.0,1494.52,-4168.21,0,0
21714.625,1354.65,-3966.74,0,0
23016.25,1238.19,-3780.32,0,0
24317.875,1133.4,-3617.03,0,0
25619.5,1041.32,-3461.42,0,0
26921.1,961.229,-3316.99,0,0
28222.7,891.668,-3183.74,0,0
29524.4,828.232,-3057.72,0,0
30826,774.346,-2942.32,0,0
32127.6,726.293,-2832.94,0,0
33429.2,688.652,-2735.16,0,0
34730.9,646.393,-2646.72,0,0
36032.5,607.37,-2562.18,0,0
37334.1,571.59,-2477.06,0,0
38635.7,540.507,-2396.56,0,0
39937.4,516.048,-2319.91,0,0
41239,494.396,-2251.89,0,0
42540.6,471.405,-2189.37,0,0
43842.225,450.295,-2122.81,0,0
45143.85,436.648,-2062.77,0,0
46445.475,424.693,-2010.97,0,0
47747.1,410.66,-1965.4,0,0
49048.725,394.189,-1923.09,0,0
50350.35,372.264,-1881.18,0,0
51651.975,351.975,-1834.38,0,0
52953.6,335.757,-1788.87,0,0
54255.225,319.196,-1745.68,0,0
55556.85,304.717,-1702.07,0,0
56858.475,293.173,-1656.88,0,0
58160.1,286.48,-1616.67,0,0
59461.7,279.038,-1579.78,0,0
60763.3,271.695,-1544.05,0,0
62065,266.057,-1511.93,0,0
63366.6,260.723,-1477.03,0,0
64668.2,255.275,-1451.37,0,0
65969.8,245.615,-1422.18,0,0
67271.5,237.576,-1390.65,0,0
68573.1,233.963,-1359.9,0,0
69874.7,232.608,-1332.63,0,0
71176.3,230.57,-1310.03,0,0
72478,224.663,-1288.58,0,0
73779.6,218.272,-1265.08,0,0
75081.2,213.809,-1241.25,0,0
76382.825,209.803,-1219.27,0,0
77684.45,205.575,-1198.27,0,0
78986.075,201.075,-1177.58,0,0
80287.7,196.682,-1157.54,0,0
81589.325,191.75,-1137.68,0,0
82890.95,186.985,-1117.37,0,0
84192.575,182.659,-1097.32,0,0
85494.2,178.731,-1076.97,0,0
86795.825,176.284,-1056.13,0,0
88097.45,175.375,-1036.43,0,0
89399.075,176.26,-1018.26,0,0
90700.7,177.017,-1003.85,0,0
92002.3,173.542,-991.126,0,0
93303.9,169.347,-974.679,0,0
94605.6,167.801,-957.278,0,0
95907.2,167.85,-943.176,0,0
97208.8,165.724,-930.915,0,0
98510.4,161.555,-915.481,0,0
99812.1,161.105,-900.33,0,0
101114,160.823,-888.884,0,0
102415,157.436,-877.022,0,0
103717,153.73,-865.947,0,0
105019,146.741,-854.452,0,0
106320.175,137.668,-837.082,0,0
107621.8,134.388,-815.563,0,0
108923.425,135.808,-796.455,0,0
110225.05,138.273,-778.544,0,0
111526.675,143.125,-761.873,0,0
112828.3,150.122,-749.942,0,0
114129.925,154.578,-739.957,0,0
115431.55,159.485,-730.291,0,0
116733.175,165.987,-727.016,0,0
118034.8,159.398,-726.556,0,0
119336.425,152.085,-715.096,0,0
120638.05,151.28,-700.853,0,0
121939.675,151.567,-694.509,0,0
123241,146.916,-684.06,0,0
124543,144.782,-673.153,0,0
125845,141.667,-662.248,0,0
127146,138.433,-650.059,0,0
128448,137.204,-635.407,0,0
129749,138.889,-623.011,0,0
131051,138.811,-612.707,0,0
132353,137.732,-601.148,0,0
133654,137.37,-589.014,0,0
134956,137.198,-576.275,0,0
136258,137.834,-562.792,0,0
137559,140.212,-549.46,0,0
138860.775,143.139,-537.274,0,0
140162.4,146.514,-525.24,0,0
141464.025,151.375,-513.939,0,0
142765.65,155.156,-505.37,0,0
144067.275,157.153,-496.012,0,0
145368.9,160.202,-485.937,0,0
146670.525,162.88,-477.245,0,0
147972.15,163.49,-468.954,0,0
149273.775,162.752,-457.183,0,0
150575.4,163.937,-443.259,0,0
151877.025,167.826,-427.56,0,0
153178.65,177.072,-414.275,0,0
154480,184.103,-406.667,0,0
155782,188.848,-395.343,0,0
157084,197.892,-386.638,0,0
158385,201.759,-381.189,0,0
159687,203.615,-371.854,0,0
160988,206.681,-360.851,0,0
162290,210.105,-349.394,0,0
163592,214.653,-335.857,0,0
164893,220.461,-322.589,0,0
166195,227.507,-308.287,0,0
167497,235.817,-294.608,0,0
168798,245.515,-280.399,0,0
170100,256.229,-267.568,0,0
171401.375,266.627,-254.648,0,0
172703.0,277.481,-241.368,0,0
174004.625,288.13,-227.258,0,0
175306.25,299.48,-210.411,0,0
176607.875,313.85,-191.215,0,0
177909.5,332.496,-170.343,0,0
179211.125,357.206,-149.592,0,0
180512.75,386.608,-133.663,0,0
181814.375,416.093,-119.802,0,0
183116.0,448.359,-107.62,0,0
184417.625,479.857,-95.6089,0,0
185719.25,516.578,-79.2828,0,0
187021,563.967,-62.7778,0,0
188322,624.183,-51.3547,0,0
189624,697.376,-52.8312,0,0
190926,776.551,-76.1152,0,0
192227,846.104,-119.842,0,0
193529,906.614,-170.256,0,0
194831,965.605,-230.313,0,0
196132,1018.69,-305.812,0,0
197434,1059.09,-397.268,0,0
198735,1078.94,-499.986,0,0
200037,1076.54,-607.206,0,0
201339,1049.69,-714.443,0,0
202640.35,997.058,-811.146,0,0
203941.975,926.278,-888.119,0,0
205243.6,847.449,-943.154,0,0
206545.225,765.627,-978.307,0,0
207846.85,687.525,-996.156,0,0
209148.475,615.593,-1000.54,0,0
210450.1,551.089,-995.329,0,0
211751.725,493.522,-983.059,0,0
213053.35,444.269,-964.283,0,0
214354.975,402.701,-944.628,0,0
215656.6,365.752,-922.992,0,0
216958.225,334.306,-899.897,0,0
218259.85,307.112,-876.353,0,0
219561,283.72,-852.213,0,0
220863,264.375,-827.594,0,0
222165,248.718,-802.578,0,0
223466,237.673,-777.194,0,0
224768,232.375,-753.181,0,0
226070,231.79,-734.04,0,0
227371,231.551,-721.668,0,0
228673,226.906,-711.722,0,0
229974,220.21,-699.954,0,0
231276,214.332,-686.19,0,0
232578,210.181,-671.618,0,0
233879,207.96,-656.788,0,0
235180.95,207.896,-642.268,0,0
236482.575,209.516,-628.611,0,0
237784.2,212.932,-615.991,0,0
239085.825,218.001,-604.589,0,0
240387.45,224.545,-594.874,0,0
241689.075,232.106,-587.191,0,0
242990.7,240.298,-581.309,0,0
244292.325,249.252,-577.151,0,0
245593.95,259.037,-576.206,0,0
246895.575,267.37,-577.798,0,0
248197.2,274.449,-580.913,0,0
249498.825,280.191,-584.387,0,0
250800,288.381,-587.831,0,0
252102,298.052,-598.163,0,0
253404,302.245,-614.034,0,0
254705,300.036,-631.579,0,0
256007,291.119,-647.635,0,0
257309,277.99,-659.63,0,0
258610,263.107,-667.334,0,0
259912,247.896,-671.515,0,0
261213,233.009,-672.944,0,0
262515,219.056,-671.934,0,0
263817,206.344,-669.498,0,0
265118,194.462,-666.036,0,0
266420,183.603,-661.578,0,0
267721.55,173.743,-656.545,0,0
269023.175,164.573,-651.09,0,0
270324.8,155.994,-645.292,0,0
271626.425,148.337,-639.176,0,0
272928.05,141.216,-632.731,0,0
274229.675,134.793,-626.083,0,0
275531.3,128.994,-619.419,0,0
276832.925,123.736,-612.749,0,0
278134.55,119.049,-606.033,0,0
279436.175,114.873,-599.264,0,0
280737.8,111.473,-592.361,0,0
282039.425,108.887,-586.228,0,0
283341,106.177,-580.619,0,0
284643,103.642,-574.84,0,0
285944,101.868,-569.221,0,0
287246,100.4,-564.816,0,0
288548,98.0342,-560.774,0,0
289849,95.4971,-556.287,0,0
291151,93.2792,-551.679,0,0
292452,91.2927,-547.296,0,0
293754,89.1875,-543.285,0,0
295056,86.6463,-539.303,0,0
296357,83.8713,-534.696,0,0
297659,81.609,-529.387,0,0
298960.525,80.5324,-524.088,0,0
300262.15,79.8388,-520.006,0,0
301563.775,78.5753,-516.3,0,0
302865.4,77.1526,-512.391,0,0
304167.025,75.7689,-508.328,0,0
305468.65,74.8216,-504.351,0,0
306770.275,73.9652,-500.865,0,0
308071.9,72.6859,-497.573,0,0
309373.525,71.3205,-494.184,0,0
310675.15,70.0295,-490.695,0,0
311976.775,68.6744,-487.333,0,0
313278.4,67.2904,-483.864,0,0
314580,65.8915,-480.318,0,0
315882,64.6628,-476.751,0,0
317183,63.5633,-473.172,0,0
318485,62.4343,-469.73,0,0
319787,61.3501,-466.195,0,0
321088,60.2597,-462.658,0,0
322390,59.4204,-459.082,0,0
323691,58.6839,-455.725,0,0
324993,57.8667,-452.431,0,0
326295,57.0412,-449.225,0,0
327596,56.1407,-445.871,0,0
328898,55.3305,-442.531,0,0
330200,54.5896,-439.166,0,0
331501.125,53.9145,-435.817,0,0
332802.75,53.3449,-432.43,0,0
334104.375,52.8915,-429.153,0,0
335406.0,52.5415,-425.908,0,0
336707.625,52.1962,-422.826,0,0
338009.25,51.8373,-419.791,0,0
339310.875,51.455,-416.763,0,0
340612.5,51.1399,-413.674,0,0
341914.125,50.9182,-410.612,0,0
343215.75,50.9412,-407.681,0,0
344517.375,50.7852,-405.158,0,0
345819.0,50.2287,-402.451,0,0
347121,49.9136,-399.458,0,0
348422,49.7277,-396.45,0,0
349724,49.7239,-393.555,0,0
351025,49.8207,-390.786,0,0
352327,49.9098,-388.115,0,0
353629,50.0417,-385.596,0,0
354930,50.1136,-383.2,0,0
356232,50.0712,-380.914,0,0
357534,49.9625,-378.545,0,0
358835,49.8941,-376.219,0,0
360137,49.8058,-373.92,0,0
361438,49.5994,-371.681,0,0
362740.1,49.319,-369.289,0,0
364041.725,49.0417,-366.908,0,0
365343.35,48.9409,-364.381,0,0
366644.975,48.8672,-361.966,0,0
367946.6,48.8247,-359.598,0,0
369248.225,48.7861,-357.269,0,0
370549.85,48.7594,-354.874,0,0
371851.475,48.8568,-352.547,0,0
373153.1,49.0261,-350.403,0,0
374454.725,49.0405,-348.528,0,0
375756.35,48.6649,-346.61,0,0
377057.975,48.2068,-344.43,0,0
378359.6,47.845,-342.067,0,0
379661,47.4961,-339.655,0,0
380963,47.1842,-337.097,0,0
382264,47.1114,-334.369,0,0
383566,47.3762,-331.867,0,0
384868,47.3846,-329.793,0,0
386169,47.1389,-327.487,0,0
387471,47.008,-324.998,0,0
388773,46.8974,-322.483,0,0
390074,46.8583,-319.88,0,0
391376,46.9027,-317.373,0,0
392677,46.9293,-314.794,0,0
393979,47.0015,-312.192,0,0
395280.7,47.1216,-309.564,0,0
396582.325,47.2815,-306.928,0,0
397883.95,47.474,-304.24,0,0
399185.575,47.7196,-301.55,0,0
400006.6,47.927,-299.829,0,0

File: sample_7.csv
Frequency (Hz),Impedance (ohms),Phase (Radians),Temperature (C),Humidity (%)
10000.0,274.838,-12096.3,0,0
11301.625,248.717,-10701.4,0,0
12603.25,259.135,-9643.23,0,0
13904.875,211.403,-8754.35,0,0
15206.5,195.016,-8018.36,0,0
16508.125,172.598,-7376.42,0,0
17809.75,172.248,-6821.91,0,0
19111.375,181.911,-6375.63,0,0
20413.0,168.571,-5986.96,0,0
21714.625,156.223,-5644.43,0,0
23016.25,131.069,-5320.07,0,0
24317.875,123.807,-5027.13,0,0
25619.5,119.267,-4763.05,0,0
26921.1,124.321,-4517.9,0,0
28222.7,181.038,-4315.32,0,0
29524.4,137.375,-4171.57,0,0
30826,134.32,-3988.48,0,0
32127.6,118.426,-3843.94,0,0
33429.2,102.024,-3692.61,0,0
34730.9,92.923,-3548.11,0,0
36032.5,89.2895,-3414.04,0,0
37334.1,86.5704,-3290.58,0,0
38635.7,87.0851,-3173.38,0,0
39937.4,97.8159,-3073.14,0,0
41239,87.1366,-2985.42,0,0
42540.6,81.0389,-2889.53,0,0
43842.225,79.8638,-2800.6,0,0
45143.85,80.8283,-2722.95,0,0
46445.475,77.7135,-2650.91,0,0
47747.1,71.3261,-2574.44,0,0
49048.725,68.6381,-2503.99,0,0
50350.35,66.6546,-2436.99,0,0
51651.975,64.9195,-2373.31,0,0
52953.6,64.2105,-2312.74,0,0
54255.225,62.7932,-2255.78,0,0
55556.85,61.5261,-2201.05,0,0
56858.475,60.7358,-2148.72,0,0
58160.1,60.1062,-2098.12,0,0
59461.7,60.3141,-2050.84,0,0
60763.3,59.7295,-2006.91,0,0
62065,57.5582,-1963.64,0,0
63366.6,56.4854,-1920.71,0,0
64668.2,55.5557,-1880.24,0,0
65969.8,55.5021,-1841.55,0,0
67271.5,53.8422,-1804.89,0,0
68573.1,52.5614,-1767.95,0,0
69874.7,52.2098,-1732.7,0,0
71176.3,52.0819,-1699.23,0,0
72478,50.8865,-1666.83,0,0
73779.6,50.0623,-1634.99,0,0
75081.2,49.5121,-1604.18,0,0
76382.825,48.9168,-1574.3,0,0
77684.45,48.7032,-1545.42,0,0
78986.075,48.3681,-1517.5,0,0
80287.7,48.1752,-1490.4,0,0
81589.325,47.8351,-1464,0,0
82890.95,47.6911,-1438.47,0,0
84192.575,47.7253,-1413.24,0,0
85494.2,47.8413,-1389.15,0,0
86795.825,47.8706,-1365.72,0,0
88097.45,48.0205,-1342.92,0,0
89399.075,47.8046,-1320.63,0,0
90700.7,48.1841,-1298.45,0,0
92002.3,48.5873,-1276.8,0,0
93303.9,49.1082,-1255.88,0,0
94605.6,50.7934,-1236.12,0,0
95907.2,50.6398,-1217.93,0,0
97208.8,50.1065,-1198.48,0,0
98510.4,51.0931,-1179.12,0,0
99812.1,50.7164,-1160.18,0,0
101114,52.1846,-1141.31,0,0
102415,53.7214,-1123.21,0,0
103717,56.6138,-1106.6,0,0
105019,57.4603,-1091.4,0,0
106320.175,57.1356,-1075.16,0,0
107621.8,58.1994,-1059.01,0,0
108923.425,59.1862,-1042.92,0,0
110225.05,59.5921,-1026.22,0,0
111526.675,62.7393,-1009.41,0,0
112828.3,66.8994,-993.323,0,0
114129.925,71.7928,-979.351,0,0
115431.55,77.5147,-966.151,0,0
116733.175,85.333,-957.29,0,0
118034.8,88.9922,-951.364,0,0
119336.425,91.9327,-948.365,0,0
120638.05,85.8316,-947.669,0,0
121939.675,76.312,-937.75,0,0
123241,68.9479,-924.764,0,0
124543,64.9027,-910.293,0,0
125845,60.8302,-896.679,0,0
127146,57.6331,-881.833,0,0
128448,56.038,-867.064,0,0
129749,54.6401,-852.432,0,0
131051,53.5077,-838.095,0,0
132353,52.9242,-822.781,0,0
133654,53.4187,-807.2,0,0
134956,56.2178,-792.141,0,0
136258,61.4454,-779.327,0,0
137559,62.2955,-771.32,0,0
138860.775,60.4226,-759.509,0,0
140162.4,60.9468,-746.042,0,0
141464.025,61.0037,-732.864,0,0
142765.65,62.2879,-718.842,0,0
144067.275,64.8666,-705.953,0,0
145368.9,66.3943,-693.592,0,0
146670.525,67.3134,-680.524,0,0
147972.15,69.1945,-667.258,0,0
149273.775,69.5217,-654.248,0,0
150575.4,70.391,-638.355,0,0
151877.025,72.9939,-620.9,0,0
153178.65,77.8991,-603.06,0,0
154480,84.7033,-584.967,0,0
155782,94.0259,-567.378,0,0
157084,105.993,-551.431,0,0
158385,119.601,-539.17,0,0
159687,128.592,-531.165,0,0
160988,131.804,-516.622,0,0
162290,141.954,-492.693,0,0
163592,161.437,-469.429,0,0
164893,187.782,-451.365,0,0
166195,216.889,-432.642,0,0
167497,261.88,-420.274,0,0
168798,316.685,-426.311,0,0
170100,363.914,-455.539,0,0
171401.375,397.477,-502.274,0,0
172703.0,411.495,-562.679,0,0
174004.625,385.664,-617.932,0,0
175306.25,344.233,-635.428,0,0
176607.875,322.381,-625.882,0,0
177909.5,332.697,-626.853,0,0
179211.125,331.602,-663.719,0,0
180512.75,301.971,-686.363,0,0
181814.375,260.784,-702.019,0,0
183116.0,217.725,-691.283,0,0
184417.625,187.993,-669.391,0,0
185719.25,169.069,-646.404,0,0
187021,155.041,-619.252,0,0
188322,152.111,-594.506,0,0
189624,145.983,-577.411,0,0
190926,139.477,-555.242,0,0
192227,138.38,-530.194,0,0
193529,141.025,-505.105,0,0
194831,147.722,-480.326,0,0
196132,159.139,-458.381,0,0
197434,171.88,-439.567,0,0
198735,183.692,-422.035,0,0
200037,196.552,-402.123,0,0
201339,214.294,-381.247,0,0
202640.35,238.99,-360.753,0,0
203941.975,269.219,-344.551,0,0
205243.6,304.893,-334.16,0,0
206545.225,345.079,-336.235,0,0
207846.85,373.48,-346.444,0,0
209148.475,406.129,-345.019,0,0
210450.1,457.541,-360.575,0,0
211751.725,494.518,-405.542,0,0
213053.35,508.876,-454.736,0,0
214354.975,507.839,-496.987,0,0
215656.6,497.093,-530.317,0,0
216958.225,489.113,-563.139,0,0
218259.85,465.447,-591.048,0,0
219561,434.18,-608.372,0,0
220863,404.007,-605.757,0,0
222165,387.338,-592.181,0,0
223466,384.107,-580.03,0,0
224768,385.537,-572.03,0,0
226070,396.329,-562.648,0,0
227371,413.884,-566.474,0,0
228673,432.216,-581.807,0,0
229974,441.614,-607.378,0,0
231276,440.84,-641.231,0,0
232578,428.528,-672.02,0,0
233879,402.145,-703.267,0,0
235180.95,359.609,-718.844,0,0
236482.575,324.362,-710.919,0,0
237784.2,297.793,-703.261,0,0
239085.825,272.792,-682.86,0,0
240387.45,269.953,-663.569,0,0
241689.075,263.775,-659.13,0,0
242990.7,249.56,-649.159,0,0
244292.325,241.716,-630.081,0,0
245593.95,247.559,-615.275,0,0
246895.575,251.105,-610.349,0,0
248197.2,251.649,-604.641,0,0
249498.825,254.008,-598.734,0,0
250800,257.896,-595.248,0,0
252102,262.929,-594.244,0,0
253404,266.702,-598.409,0,0
254705,264.535,-605.338,0,0
256007,257.144,-609.454,0,0
257309,247.7,-609.079,0,0
258610,239.446,-603.111,0,0
259912,234.92,-596.263,0,0
261213,231.975,-586.231,0,0
262515,236.546,-575.179,0,0
263817,247.732,-571.451,0,0
265118,254.941,-576.375,0,0
266420,257.691,-579.698,0,0
267721.55,261.941,-585.437,0,0
269023.175,261.969,-592.809,0,0
270324.8,262.438,-597.605,0,0
271626.425,266.959,-605.644,0,0
272928.05,270.798,-627.922,0,0
274229.675,252.383,-656.772,0,0
275531.3,216.426,-670.746,0,0
276832.925,179.627,-663.339,0,0
278134.55,153.06,-641.678,0,0
279436.175,141.086,-617.693,0,0
280737.8,137.523,-596.828,0,0
282039.425,137.223,-583.549,0,0
283341,133.488,-569.965,0,0
284643,134.074,-553.667,0,0
285944,139.361,-540.134,0,0
287246,145.902,-531.534,0,0
288548,149.377,-524.769,0,0
289849,153.06,-516.214,0,0
291151,159.084,-507.274,0,0
292452,166.972,-500.88,0,0
293754,174.918,-495.786,0,0
295056,183.469,-490.996,0,0
296357,194.443,-487.188,0,0
297659,208.056,-486.406,0,0
298960.525,221.83,-490.183,0,0
300262.15,235.584,-496.908,0,0
301563.775,250.516,-508.67,0,0
302865.4,263.677,-531.965,0,0
304167.025,260.334,-561.978,0,0
305468.65,245.34,-584.332,0,0
306770.275,224.903,-598.946,0,0
308071.9,203.517,-604.897,0,0
309373.525,183.462,-604.7,0,0
310675.15,167.281,-599.55,0,0
311976.775,154.916,-593.37,0,0
313278.4,144.449,-586.813,0,0
314580,135.208,-579.188,0,0
315882,128.699,-570.421,0,0
317183,124.764,-562.833,0,0
318485,121.441,-556.418,0,0
319787,119.045,-550.28,0,0
321088,117.561,-545.431,0,0
322390,115.879,-541.886,0,0
323691,113.374,-538.871,0,0
324993,110.503,-535.297,0,0
326295,108.322,-531.812,0,0
327596,106.035,-529.097,0,0
328898,103.062,-526.529,0,0
330200,99.916,-523.769,0,0
331501.125,96.5875,-521.068,0,0
332802.75,92.5096,-518.452,0,0
334104.375,87.6552,-514.986,0,0
335406.0,82.9783,-510.291,0,0
336707.625,78.5151,-504.821,0,0
338009.25,74.9651,-498.464,0,0
339310.875,72.2951,-491.829,0,0
340612.5,70.3182,-485.418,0,0
341914.125,68.926,-478.793,0,0
343215.75,68.4822,-472.186,0,0
344517.375,68.832,-466.165,0,0
345819.0,69.5444,-460.99,0,0
347121,70.1144,-456.607,0,0
348422,70.0368,-452.683,0,0
349724,69.4434,-448.086,0,0
351025,69.0302,-442.957,0,0
352327,69.6898,-437.269,0,0
353629,71.4399,-432.238,0,0
354930,73.4628,-428.176,0,0
356232,75.3938,-425.44,0,0
357534,75.6384,-423.162,0,0
358835,75.0106,-419.692,0,0
360137,74.897,-414.932,0,0
361438,76.1407,-409.766,0,0
362740.1,78.4134,-405.257,0,0
364041.725,80.9121,-401.485,0,0
365343.35,83.8116,-398.28,0,0
366644.975,86.6008,-396.267,0,0
367946.6,88.7196,-394.476,0,0
369248.225,90.7566,-393.116,0,0
370549.85,91.9553,-392.868,0,0
371851.475,91.0156,-391.733,0,0
373153.1,90.2394,-388.542,0,0
374454.725,90.7316,-384.639,0,0
375756.35,92.0404,-381.018,0,0
377057.975,93.5535,-377.94,0,0
378359.6,95.0112,-374.381,0,0
379661,97.4116,-370.92,0,0
380963,100.017,-368.141,0,0
382264,102.514,-365.443,0,0
383566,105.514,-362.871,0,0
384868,108.613,-360.827,0,0
386169,111.372,-359.03,0,0
387471,114.175,-357.105,0,0
388773,117.132,-354.605,0,0
390074,121.695,-352.304,0,0
391376,126.318,-351.65,0,0
392677,130.501,-351.083,0,0
393979,134.77,-350.665,0,0
395280.7,139.725,-350.009,0,0
396582.325,146.328,-350.151,0,0
397883.95,154.157,-352.929,0,0
399185.575,161.321,-359.253,0,0
400006.6,164.423,-365.02,0,0