Folder: ML_Dmg_Mehdi_Dataset/Accelerated corrosion test data/2025-10-09_18-00-04 (part 2)

File: sample_3.csv
Frequency (Hz),Impedance (ohms),Phase (Radians),Temperature (C),Humidity (%)
10000.0,251.23,-11781.6,0,0
11301.625,223.591,-10436,0,0
12603.25,202.598,-9366.15,0,0
13904.875,185.079,-8494.81,0,0
15206.5,172.49,-7764.65,0,0
16508.125,161.206,-7169.97,0,0
17809.75,156.722,-6641.47,0,0
19111.375,146.138,-6190.41,0,0
20413.0,157.735,-5790.19,0,0
21714.625,137.918,-5469.44,0,0
23016.25,128.002,-5164.12,0,0
24317.875,118.228,-4884.91,0,0
25619.5,113.543,-4638.11,0,0
26921.1,108.205,-4407.93,0,0
28222.7,102.981,-4201.41,0,0
29524.4,108.875,-4024.29,0,0
30826,100.592,-3852.7,0,0
32127.6,101.225,-3688.29,0,0
33429.2,99.237,-3563.33,0,0
34730.9,87.8269,-3426.15,0,0
36032.5,83.035,-3298.34,0,0
37334.1,80.0253,-3180.73,0,0
38635.7,77.9305,-3070.77,0,0
39937.4,75.4419,-2968.3,0,0
41239,74.084,-2871.38,0,0
42540.6,72.8766,-2781.55,0,0
43842.225,71.5664,-2696.25,0,0
45143.85,70.7467,-2616.52,0,0
46445.475,69.6888,-2541.12,0,0
47747.1,69.8801,-2468.45,0,0
49048.725,68.4146,-2403.21,0,0
50350.35,66.4938,-2338.06,0,0
51651.975,65.9322,-2275.41,0,0
52953.6,66.3127,-2215.68,0,0
54255.225,69.1831,-2160.93,0,0
55556.85,66.4989,-2113.59,0,0
56858.475,61.6396,-2060.66,0,0
58160.1,60.9988,-2008.81,0,0
59461.7,61.4163,-1959.63,0,0
60763.3,62.8062,-1912.98,0,0
62065,64.8832,-1868.35,0,0
63366.6,68.4961,-1824.77,0,0
64668.2,77.4162,-1782.93,0,0
65969.8,91.6908,-1757.83,0,0
67271.5,75.957,-1732.35,0,0
68573.1,76.0861,-1694.95,0,0
69874.7,75.6443,-1665.76,0,0
71176.3,70.4887,-1635.36,0,0
72478,69.065,-1602.57,0,0
73779.6,67.4543,-1574.22,0,0
75081.2,63.9773,-1546.02,0,0
76382.825,60.3711,-1516.71,0,0
77684.45,57.9331,-1487.84,0,0
78986.075,55.7821,-1459.37,0,0
80287.7,54.222,-1431.37,0,0
81589.325,53.213,-1404.2,0,0
82890.95,52.6966,-1377.75,0,0
84192.575,52.3911,-1352.11,0,0
85494.2,52.3713,-1327.1,0,0
86795.825,52.5243,-1302.83,0,0
88097.45,53.0472,-1278.83,0,0
89399.075,54.3812,-1255.25,0,0
90700.7,56.7576,-1233.46,0,0
92002.3,59.1464,-1212.7,0,0
93303.9,62.3197,-1194.05,0,0
94605.6,63.2397,-1179.52,0,0
95907.2,57.9822,-1161.97,0,0
97208.8,56.6606,-1140.89,0,0
98510.4,56.4587,-1121.48,0,0
99812.1,55.8,-1102.65,0,0
101114,55.3421,-1082.89,0,0
102415,56.5257,-1062.47,0,0
103717,60.4295,-1044.73,0,0
105019,63.7303,-1030.7,0,0
106320.175,62.9746,-1017.05,0,0
107621.8,60.4632,-1001.38,0,0
108923.425,58.6637,-983.729,0,0
110225.05,58.8411,-965.131,0,0
111526.675,61.1467,-947.294,0,0
112828.3,63.3427,-931.311,0,0
114129.925,64.9108,-915.338,0,0
115431.55,67.0644,-898.484,0,0
116733.175,70.8773,-882.002,0,0
118034.8,76.6359,-866.274,0,0
119336.425,83.2143,-854.564,0,0
120638.05,89.0906,-848.147,0,0
121939.675,86.4435,-839.865,0,0
123241,86.7505,-826.701,0,0
124543,88.2226,-815.44,0,0
125845,89.3693,-805.117,0,0
127146,88.6795,-795.347,0,0
128448,86.8962,-784.462,0,0
129749,85.2653,-771.308,0,0
131051,86.3373,-758.221,0,0
132353,85.8687,-747.157,0,0
133654,85.2694,-735.205,0,0
134956,83.7048,-722.72,0,0
136258,82.3472,-709.191,0,0
137559,82.2201,-694.014,0,0
138860.775,83.5605,-680.606,0,0
140162.4,82.6422,-667.079,0,0
141464.025,82.4754,-652.828,0,0
142765.65,81.8651,-636.958,0,0
144067.275,82.1893,-619.811,0,0
145368.9,83.8465,-601.826,0,0
146670.525,86.567,-583.059,0,0
147972.15,90.8944,-563.143,0,0
149273.775,97.4684,-543.017,0,0
150575.4,107.937,-522.59,0,0
151877.025,120.652,-506.008,0,0
153178.65,133.372,-492.303,0,0
154480,143.391,-480.351,0,0
155782,151.574,-464.301,0,0
157084,163.097,-446.829,0,0
158385,179.763,-434.869,0,0
159687,184.835,-420.774,0,0
160988,200.582,-392.188,0,0
162290,226.485,-367.156,0,0
163592,263.173,-347.367,0,0
164893,311.004,-336.319,0,0
166195,363.62,-349.503,0,0
167497,402.272,-383.368,0,0
168798,422.608,-420.309,0,0
170100,421.891,-461.39,0,0
171401.375,406.283,-477.642,0,0
172703.0,400.559,-480.472,0,0
174004.625,408.604,-487.89,0,0
175306.25,412.834,-505.627,0,0
176607.875,406.523,-524.199,0,0
177909.5,385.822,-539.731,0,0
179211.125,363.177,-532.741,0,0
180512.75,358.403,-519.483,0,0
181814.375,362.428,-515.427,0,0
183116.0,355.55,-521.318,0,0
184417.625,341.221,-518.452,0,0
185719.25,328.047,-505.532,0,0
187021,322.949,-482.617,0,0
188322,329.737,-463.474,0,0
189624,335.385,-449.711,0,0
190926,345.248,-435.8,0,0
192227,354.586,-422.421,0,0
193529,365.63,-404.789,0,0
194831,388.907,-386.443,0,0
196132,422.41,-382.729,0,0
197434,444.049,-395.768,0,0
198735,456.81,-401.534,0,0
200037,467.925,-405.44,0,0
201339,472.942,-402.542,0,0
202640.35,491.022,-392.885,0,0
203941.975,520.549,-391.428,0,0
205243.6,549.57,-403.158,0,0
206545.225,563.941,-421.245,0,0
207846.85,580.497,-421.514,0,0
209148.475,611.891,-429.864,0,0
210450.1,644.178,-451.425,0,0
211751.725,671.128,-482.631,0,0
213053.35,691.789,-517.848,0,0
214354.975,706.166,-559.423,0,0
215656.6,714.842,-604.146,0,0
216958.225,711.468,-652.911,0,0
218259.85,697.381,-695.312,0,0
219561,678.432,-732.406,0,0
220863,658.646,-770.252,0,0
222165,628.128,-806.707,0,0
223466,584.343,-833.176,0,0
224768,541.537,-835.384,0,0
226070,519.53,-831.054,0,0
227371,504.198,-840.147,0,0
228673,479.845,-853.46,0,0
229974,450.622,-859.963,0,0
231276,422.289,-861.695,0,0
232578,396.337,-859.858,0,0
233879,372.138,-856.436,0,0
235180.95,349.14,-852.158,0,0
236482.575,324.858,-847.134,0,0
237784.2,300.674,-838.365,0,0
239085.825,276.909,-824.265,0,0
240387.45,259.347,-806.086,0,0
241689.075,245.948,-788.342,0,0
242990.7,237.925,-770.328,0,0
244292.325,232.849,-755.583,0,0
245593.95,228.444,-743.866,0,0
246895.575,223.146,-732.576,0,0
248197.2,219.056,-720.913,0,0
249498.825,218.054,-710.168,0,0
250800,216.48,-704.111,0,0
252102,210.277,-698.311,0,0
253404,202.049,-687.975,0,0
254705,197.195,-672.786,0,0
256007,197.685,-655.943,0,0
257309,205.423,-641.818,0,0
258610,214.206,-633.566,0,0
259912,225.28,-626.092,0,0
261213,240.13,-626.91,0,0
262515,250.292,-638.824,0,0
263817,248.788,-652.979,0,0
265118,238.967,-663.761,0,0
266420,224.571,-666.953,0,0
267721.55,210.713,-662.56,0,0
269023.175,201.582,-653.564,0,0
270324.8,196.487,-644.642,0,0
271626.425,194.53,-635.279,0,0
272928.05,194.678,-628.581,0,0
274229.675,193.951,-621.195,0,0
275531.3,197.249,-613.04,0,0
276832.925,204.882,-608.698,0,0
278134.55,212.437,-611.112,0,0
279436.175,215.644,-618.086,0,0
280737.8,212.871,-625.858,0,0
282039.425,206.125,-631.011,0,0
283341,197.169,-632.706,0,0
284643,188.12,-631.062,0,0
285944,179.999,-626.456,0,0
287246,174.535,-619.446,0,0
288548,173.246,-612.663,0,0
289849,173.049,-609.141,0,0
291151,171.838,-606.733,0,0
292452,168.995,-604.166,0,0
293754,167.511,-599.102,0,0
295056,169.499,-595.306,0,0
296357,172.241,-595.676,0,0
297659,172.219,-598.888,0,0
298960.525,168.599,-602.217,0,0
300262.15,163.084,-603.874,0,0
301563.775,156.566,-603.987,0,0
302865.4,149.724,-602.105,0,0
304167.025,143.549,-598.923,0,0
305468.65,138.054,-594.575,0,0
306770.275,133.877,-589.315,0,0
308071.9,131.536,-584.519,0,0
309373.525,129.613,-581.223,0,0
310675.15,126.747,-578.766,0,0
311976.775,122.742,-575.948,0,0
313278.4,118.088,-571.527,0,0
314580,114.502,-565.403,0,0
315882,113.341,-558.512,0,0
317183,114.283,-553.28,0,0
318485,115.047,-550.232,0,0
319787,114.919,-547.591,0,0
321088,114.747,-544.847,0,0
322390,115.621,-542.562,0,0
323691,116.115,-542.583,0,0
324993,114.683,-543.291,0,0
326295,111.546,-543.75,0,0
327596,107.266,-543.017,0,0
328898,102.863,-541.067,0,0
330200,98.7502,-538.381,0,0
331501.125,94.6535,-535.47,0,0
332802.75,90.2718,-531.888,0,0
334104.375,85.9007,-527.479,0,0
335406.0,82.2146,-521.952,0,0
336707.625,79.5059,-515.84,0,0
338009.25,77.6657,-509.764,0,0
339310.875,76.4602,-503.322,0,0
340612.5,76.6509,-496.58,0,0
341914.125,78.5909,-490.878,0,0
343215.75,81.2096,-487.181,0,0
344517.375,82.9415,-485.115,0,0
345819.0,83.1474,-483.583,0,0
347121,82.6721,-481.346,0,0
348422,82.0296,-478.609,0,0
349724,81.5928,-475.285,0,0
351025,82.3996,-471.713,0,0
352327,84.0955,-469.867,0,0
353629,84.296,-469.602,0,0
354930,82.6406,-468.626,0,0
356232,80.9195,-466.49,0,0
357534,79.2425,-463.755,0,0
358835,78.0482,-460.177,0,0
360137,77.8652,-456.637,0,0
361438,77.9104,-453.832,0,0
362740.1,77.8022,-450.91,0,0
364041.725,78.3717,-447.597,0,0
365343.35,79.9662,-445.731,0,0
366644.975,80.2318,-445.578,0,0
367946.6,78.4413,-444.957,0,0
369248.225,75.8362,-442.101,0,0
370549.85,75.4951,-437.492,0,0
371851.475,77.3236,-434.867,0,0
373153.1,77.6911,-434.615,0,0
374454.725,75.908,-433.466,0,0
375756.35,74.075,-430.76,0,0
377057.975,73.2577,-426.996,0,0
378359.6,73.652,-423.555,0,0
379661,74.6334,-420.816,0,0
380963,75.441,-419.127,0,0
382264,75.6074,-417.737,0,0
383566,75.4427,-416.464,0,0
384868,74.5653,-415.119,0,0
386169,73.3169,-413.097,0,0
387471,72.1808,-410.531,0,0
388773,71.0801,-407.381,0,0
390074,70.6039,-403.579,0,0
391376,71.1704,-399.507,0,0
392677,72.937,-395.857,0,0
393979,75.3929,-393.33,0,0
395280.7,77.8141,-392.066,0,0
396582.325,79.7475,-391.687,0,0
397883.95,80.8727,-392.093,0,0
399185.575,80.6721,-392.63,0,0
400006.6,80.0937,-392.685,0,0

File: sample_4.csv
Frequency (Hz),Impedance (ohms),Phase (Radians),Temperature (C),Humidity (%)
10000.0,264.017,-11854,0,0
11301.625,234.642,-10501.5,0,0
12603.25,213.241,-9421.33,0,0
13904.875,193.806,-8542.07,0,0
15206.5,181.654,-7818.13,0,0
16508.125,188.354,-7203.71,0,0
17809.75,155.549,-6698.79,0,0
19111.375,145.283,-6242.53,0,0
20413.0,140.872,-5843.02,0,0
21714.625,145.634,-5498.14,0,0
23016.25,125.129,-5199.1,0,0
24317.875,116.827,-4914.77,0,0
25619.5,112.325,-4661.61,0,0
26921.1,106.695,-4432.98,0,0
28222.7,120.174,-4230.22,0,0
29524.4,112.178,-4050.23,0,0
30826,98.6379,-3879.46,0,0
32127.6,99.8095,-3719.53,0,0
33429.2,90.2268,-3578.83,0,0
34730.9,85.1588,-3440.65,0,0
36032.5,82.0213,-3313.38,0,0
37334.1,79.762,-3194.93,0,0
38635.7,77.2101,-3083.13,0,0
39937.4,76.7405,-2977.55,0,0
41239,79.4544,-2883.31,0,0
42540.6,78.9457,-2795.59,0,0
43842.225,73.5973,-2712.23,0,0
45143.85,71.449,-2631.25,0,0
46445.475,70.3864,-2554.42,0,0
47747.1,70.0196,-2484.44,0,0
49048.725,66.3592,-2415.42,0,0
50350.35,64.4895,-2348.26,0,0
51651.975,63.9685,-2283.61,0,0
52953.6,65.7212,-2220.8,0,0
54255.225,73.6602,-2164.66,0,0
55556.85,71.9892,-2121.48,0,0
56858.475,65.8404,-2067.85,0,0
58160.1,66.8533,-2015.36,0,0
59461.7,70.9279,-1965.22,0,0
60763.3,80.0881,-1927.27,0,0
62065,69.8965,-1894.17,0,0
63366.6,64.2761,-1848.71,0,0
64668.2,64.6421,-1805.37,0,0
65969.8,66.649,-1764.85,0,0
67271.5,70.6293,-1729.11,0,0
68573.1,73.812,-1700.11,0,0
69874.7,66.3147,-1670.03,0,0
71176.3,64.8669,-1635.78,0,0
72478,59.2785,-1604.54,0,0
73779.6,57.8258,-1568.1,0,0
75081.2,59.8893,-1535.28,0,0
76382.825,62.401,-1506.65,0,0
77684.45,65.0034,-1479.05,0,0
78986.075,63.7245,-1456.52,0,0
80287.7,60.8379,-1429.67,0,0
81589.325,60.2087,-1403.67,0,0
82890.95,58.9383,-1378.6,0,0
84192.575,57.8134,-1353.73,0,0
85494.2,57.0858,-1329.5,0,0
86795.825,56.3744,-1305.92,0,0
88097.45,55.0492,-1283.5,0,0
89399.075,53.5335,-1259.4,0,0
90700.7,53.3678,-1236.15,0,0
92002.3,53.6473,-1213.07,0,0
93303.9,54.8599,-1192.32,0,0
94605.6,53.4983,-1171.92,0,0
95907.2,53.0306,-1149.41,0,0
97208.8,53.9276,-1127.77,0,0
98510.4,55.2389,-1106.32,0,0
99812.1,57.844,-1085.64,0,0
101114,62.1666,-1067.15,0,0
102415,61.3916,-1052.88,0,0
103717,58.3256,-1030.25,0,0
105019,62.1697,-1006.67,0,0
106320.175,68.7322,-986.348,0,0
107621.8,75.5348,-968.543,0,0
108923.425,83.8428,-952.002,0,0
110225.05,91.9693,-939.482,0,0
111526.675,98.1248,-928.67,0,0
112828.3,103.114,-918.921,0,0
114129.925,106.395,-910.281,0,0
115431.55,108.225,-902.189,0,0
116733.175,107.557,-893.871,0,0
118034.8,105.205,-883.076,0,0
119336.425,106.061,-868.924,0,0
120638.05,111.289,-863.708,0,0
121939.675,104.404,-857.271,0,0
123241,99.6761,-844.972,0,0
124543,96.5051,-832.389,0,0
125845,94.3078,-820.023,0,0
127146,90.916,-808.79,0,0
128448,86.2658,-796.828,0,0
129749,80.0322,-782.072,0,0
131051,75.3725,-764.421,0,0
132353,72.9194,-745.767,0,0
133654,72.2232,-726.893,0,0
134956,72.9604,-708.05,0,0
136258,75.1991,-689.709,0,0
137559,77.9148,-672.478,0,0
138860.775,79.8543,-654.721,0,0
140162.4,83.1296,-635.788,0,0
141464.025,88.1634,-616.886,0,0
142765.65,94.0813,-598.599,0,0
144067.275,100.807,-580.242,0,0
145368.9,108.667,-561.658,0,0
146670.525,118.145,-543.011,0,0
147972.15,129.097,-525.091,0,0
149273.775,141.741,-507.012,0,0
150575.4,156.827,-489.377,0,0
151877.025,175.624,-473.277,0,0
153178.65,197.741,-461.476,0,0
154480,219.206,-456.58,0,0
155782,236.105,-452.727,0,0
157084,251.091,-450.758,0,0
158385,266.235,-444.956,0,0
159687,286.967,-442.399,0,0
160988,304.999,-450.591,0,0
162290,311.241,-456.58,0,0
163592,316.248,-455.695,0,0
164893,325.995,-449.893,0,0
166195,341.341,-443.965,0,0
167497,367.51,-443.31,0,0
168798,394.077,-460.845,0,0
170100,409.478,-489.283,0,0
171401.375,404.974,-526.957,0,0
172703.0,379.573,-551.183,0,0
174004.625,346.626,-555.806,0,0
175306.25,319.551,-543.86,0,0
176607.875,302.362,-522.086,0,0
177909.5,296.282,-498.693,0,0
179211.125,295.901,-478.007,0,0
180512.75,299.449,-459.253,0,0
181814.375,303.636,-442.51,0,0
183116.0,306.838,-425.043,0,0
184417.625,311.654,-403.894,0,0
185719.25,320.466,-380.152,0,0
187021,334.257,-354.711,0,0
188322,353.519,-328.347,0,0
189624,379.764,-301.689,0,0
190926,414.688,-276.804,0,0
192227,458.128,-257.227,0,0
193529,508.693,-245.93,0,0
194831,563.074,-244.024,0,0
196132,620.222,-250.176,0,0
197434,683.17,-265.613,0,0
198735,751.282,-298.615,0,0
200037,814.891,-356.814,0,0
201339,857.765,-435.791,0,0
202640.35,872.85,-520.301,0,0
203941.975,868.153,-596.483,0,0
205243.6,849.901,-666.486,0,0
206545.225,822.248,-725.631,0,0
207846.85,788.258,-785.066,0,0
209148.475,732.98,-829.931,0,0
210450.1,677.787,-850.726,0,0
211751.725,630.174,-857.27,0,0
213053.35,593.817,-854.767,0,0
214354.975,567.711,-849.011,0,0
215656.6,553.852,-849.76,0,0
216958.225,535.425,-859.54,0,0
218259.85,514.316,-865.541,0,0
219561,493.965,-871.673,0,0
220863,471.665,-878.786,0,0
222165,447.185,-883.084,0,0
223466,423.305,-884.561,0,0
224768,399.995,-885.592,0,0
226070,373.821,-886.55,0,0
227371,344.999,-881.981,0,0
228673,316.648,-871.951,0,0
229974,292.607,-855.473,0,0
231276,274.46,-837.237,0,0
232578,260.636,-819.414,0,0
233879,250.367,-802.019,0,0
235180.95,242.713,-785.954,0,0
236482.575,236.91,-772.062,0,0
237784.2,232.012,-757.944,0,0
239085.825,230.446,-745.467,0,0
240387.45,229.449,-736.38,0,0
241689.075,227.516,-729.397,0,0
242990.7,223.975,-723.693,0,0
244292.325,218.719,-717.861,0,0
245593.95,211.974,-710.222,0,0
246895.575,206.541,-700.314,0,0
248197.2,203.868,-690.406,0,0
249498.825,201.14,-682.241,0,0
250800,198.285,-674.343,0,0
252102,194.211,-666.965,0,0
253404,187.695,-657.213,0,0
254705,183.093,-643.087,0,0
256007,181.202,-626.633,0,0
257309,184.521,-608.204,0,0
258610,193.536,-590.564,0,0
259912,208.36,-575.652,0,0
261213,227.762,-566.742,0,0
262515,247.794,-565.188,0,0
263817,268.553,-569.014,0,0
265118,286.338,-581.632,0,0
266420,298.888,-599.508,0,0
267721.55,302.401,-621.433,0,0
269023.175,298.441,-642.043,0,0
270324.8,284.587,-658.213,0,0
271626.425,272.349,-664.187,0,0
272928.05,263.528,-671.54,0,0
274229.675,251.669,-680.05,0,0
275531.3,234.054,-686.844,0,0
276832.925,212.728,-685.587,0,0
278134.55,194.198,-675.494,0,0
279436.175,183.664,-659.885,0,0
280737.8,181.984,-647.719,0,0
282039.425,180.571,-640.571,0,0
283341,179.723,-632.881,0,0
284643,180.405,-629.752,0,0
285944,177.637,-628.19,0,0
287246,170.872,-624.307,0,0
288548,165.467,-614.7,0,0
289849,166.862,-601.169,0,0
291151,177.05,-592.224,0,0
292452,189.507,-592.668,0,0
293754,198.15,-601.588,0,0
295056,198.352,-614.7,0,0
296357,189.887,-625.255,0,0
297659,177.948,-628.92,0,0
298960.525,167.963,-628.204,0,0
300262.15,159.429,-626.325,0,0
301563.775,151.09,-623.566,0,0
302865.4,143.758,-619.014,0,0
304167.025,137.31,-614.21,0,0
305468.65,131.828,-608.357,0,0
306770.275,127.879,-602.143,0,0
308071.9,125.742,-596.56,0,0
309373.525,124.076,-592.762,0,0
310675.15,121.346,-589.859,0,0
311976.775,117.743,-586.21,0,0
313278.4,114.564,-581.796,0,0
314580,112.451,-577.041,0,0
315882,111.21,-573.144,0,0
317183,110.081,-570.231,0,0
318485,108.463,-568.298,0,0
319787,106.155,-567.146,0,0
321088,102.041,-566.366,0,0
322390,95.821,-564.433,0,0
323691,88.7661,-559.308,0,0
324993,84.309,-551.977,0,0
326295,81.5102,-545.299,0,0
327596,79.0898,-538.71,0,0
328898,77.3698,-531.65,0,0
330200,77.2512,-524.433,0,0
331501.125,78.703,-518.739,0,0
332802.75,79.9178,-514.726,0,0
334104.375,80.0497,-511.987,0,0
335406.0,78.8217,-508.897,0,0
336707.625,76.7749,-504.822,0,0
338009.25,75.2774,-499.139,0,0
339310.875,75.1177,-492.888,0,0
340612.5,76.4043,-486.533,0,0
341914.125,79.456,-480.842,0,0
343215.75,83.9985,-477.442,0,0
344517.375,87.6317,-476.831,0,0
345819.0,89.2688,-477.312,0,0
347121,89.0952,-477.762,0,0
348422,87.7774,-477.37,0,0
349724,85.786,-476.175,0,0
351025,83.6605,-473.842,0,0
352327,81.7897,-470.706,0,0
353629,80.7466,-466.878,0,0
354930,80.9664,-463.266,0,0
356232,81.2447,-460.824,0,0
357534,80.7153,-458.834,0,0
358835,79.2305,-456.351,0,0
360137,77.9097,-452.433,0,0
361438,77.7507,-448.193,0,0
362740.1,78.5271,-444.097,0,0
364041.725,79.6386,-441.059,0,0
365343.35,79.7795,-438.189,0,0
366644.975,79.985,-434.297,0,0
367946.6,81.2935,-429.662,0,0
369248.225,84.2239,-425.23,0,0
370549.85,88.7489,-422.054,0,0
371851.475,94.0464,-421.032,0,0
373153.1,98.7438,-422.766,0,0
374454.725,100.815,-426.242,0,0
375756.35,100.179,-428.965,0,0
377057.975,98.8989,-430.074,0,0
378359.6,98.0216,-430.741,0,0
379661,96.4949,-431.352,0,0
380963,94.9009,-431.204,0,0
382264,93.5368,-430.246,0,0
383566,94.1209,-430.338,0,0
384868,92.7133,-433.169,0,0
386169,87.8684,-434.847,0,0
387471,81.976,-433.221,0,0
388773,77.9692,-428.852,0,0
390074,77.1582,-424.187,0,0
391376,77.9066,-422.161,0,0
392677,77.1174,-422.787,0,0
393979,73.1083,-422.698,0,0
395280.7,68.492,-420.043,0,0
396582.325,64.9436,-415.726,0,0
397883.95,62.647,-411.052,0,0
399185.575,60.9373,-406.285,0,0
400006.6,60.1848,-403.138,0,0