Folder: ML_Dmg_Mehdi_Dataset/Accelerated corrosion test data/2025-10-03_18-00-02 (part 4)

File: sample_8.csv
Frequency (Hz),Impedance (ohms),Phase (Radians),Temperature (C),Humidity (%)
10000.0,320.301,-10837.6,0,0
11301.625,283.504,-9604.9,0,0
12603.25,260.698,-8626.35,0,0
13904.875,231.525,-7833.49,0,0
15206.5,211.167,-7169.36,0,0
16508.125,194.266,-6610.17,0,0
17809.75,180.552,-6130.04,0,0
19111.375,171.352,-5713.44,0,0
20413.0,162.911,-5354.59,0,0
21714.625,154.034,-5037.61,0,0
23016.25,147.577,-4757.97,0,0
24317.875,137.187,-4504.93,0,0
25619.5,129.952,-4275.25,0,0
26921.1,124.613,-4066.92,0,0
28222.7,121.128,-3878.64,0,0
29524.4,118.548,-3707.49,0,0
30826,115.976,-3551.96,0,0
32127.6,113.41,-3407.73,0,0
33429.2,114.586,-3274.22,0,0
34730.9,112.53,-3157.09,0,0
36032.5,107.61,-3048.4,0,0
37334.1,100.996,-2943.27,0,0
38635.7,94.2791,-2843.71,0,0
39937.4,88.8014,-2748.66,0,0
41239,86.2659,-2658.94,0,0
42540.6,83.6847,-2574.89,0,0
43842.225,82.6321,-2497.71,0,0
45143.85,79.9238,-2423.92,0,0
46445.475,77.4663,-2353.89,0,0
47747.1,76.0554,-2287.49,0,0
49048.725,73.7885,-2225.16,0,0
50350.35,72.0654,-2165.17,0,0
51651.975,71.2237,-2107.55,0,0
52953.6,70.9857,-2053.96,0,0
54255.225,69.3221,-2004.52,0,0
55556.85,66.219,-1955.49,0,0
56858.475,64.1473,-1906.97,0,0
58160.1,63.3632,-1860.67,0,0
59461.7,63.3512,-1817.49,0,0
60763.3,61.639,-1775.21,0,0
62065,61.5724,-1734.64,0,0
63366.6,61.9979,-1695.23,0,0
64668.2,63.415,-1659.36,0,0
65969.8,62.1746,-1625.97,0,0
67271.5,60.1148,-1591.45,0,0
68573.1,59.4449,-1557.54,0,0
69874.7,59.2443,-1524.62,0,0
71176.3,59.7177,-1493.73,0,0
72478,60.1299,-1464.52,0,0
73779.6,58.9536,-1435.6,0,0
75081.2,58.5037,-1407.38,0,0
76382.825,58.5583,-1379.83,0,0
77684.45,58.3579,-1353.42,0,0
78986.075,57.9735,-1327.26,0,0
80287.7,58.0337,-1301.48,0,0
81589.325,58.4257,-1276.35,0,0
82890.95,59.6929,-1251.49,0,0
84192.575,61.7956,-1228.29,0,0
85494.2,62.8995,-1207.09,0,0
86795.825,62.905,-1184.67,0,0
88097.45,64.4752,-1162.41,0,0
89399.075,66.7163,-1141.26,0,0
90700.7,69.7572,-1120.49,0,0
92002.3,74.6668,-1102.32,0,0
93303.9,77.0216,-1088.28,0,0
94605.6,75.798,-1071.21,0,0
95907.2,76.6466,-1054.24,0,0
97208.8,77.6175,-1036.84,0,0
98510.4,79.6447,-1021.23,0,0
99812.1,79.9238,-1006.85,0,0
101114,80.3359,-992.347,0,0
102415,80.0414,-976.897,0,0
103717,80.3243,-962.402,0,0
105019,80.0706,-947.894,0,0
106320.175,79.996,-933.167,0,0
107621.8,79.8707,-918.823,0,0
108923.425,80.2509,-904.175,0,0
110225.05,80.8508,-890.739,0,0
111526.675,80.6354,-877.474,0,0
112828.3,80.6355,-864.023,0,0
114129.925,80.5286,-850.953,0,0
115431.55,79.6442,-837.786,0,0
116733.175,79.0301,-824.335,0,0
118034.8,78.3973,-810.513,0,0
119336.425,78.5516,-796.692,0,0
120638.05,78.4873,-782.81,0,0
121939.675,78.8422,-769.099,0,0
123241,79.3135,-755.488,0,0
124543,80.0734,-741.32,0,0
125845,81.7264,-727.848,0,0
127146,83.5323,-715.119,0,0
128448,84.5206,-703.089,0,0
129749,84.5369,-690.453,0,0
131051,84.224,-676.028,0,0
132353,86.9475,-662.049,0,0
133654,89.2947,-648.351,0,0
134956,91.8113,-635.712,0,0
136258,94.2811,-622.89,0,0
137559,95.7292,-611.632,0,0
138860.775,95.1933,-597.113,0,0
140162.4,97.0449,-581.95,0,0
141464.025,99.0103,-565.989,0,0
142765.65,102.53,-549.29,0,0
144067.275,106.888,-531.4,0,0
145368.9,114.528,-512.54,0,0
146670.525,125.292,-496.692,0,0
147972.15,136.43,-483.518,0,0
149273.775,143.183,-467.043,0,0
150575.4,159.342,-448.812,0,0
151877.025,183.019,-438.047,0,0
153178.65,197.243,-440.192,0,0
154480,204.45,-437.495,0,0
155782,215.716,-429.18,0,0
157084,222.518,-432.82,0,0
158385,223.35,-418.241,0,0
159687,243.37,-408.515,0,0
160988,248.35,-411.859,0,0
162290,257.43,-400.437,0,0
163592,273.12,-400.412,0,0
164893,277.697,-405.428,0,0
166195,280.075,-408.024,0,0
167497,268.275,-405.39,0,0
168798,261.061,-386.644,0,0
170100,264.686,-363.238,0,0
171401.375,274.648,-341.38,0,0
172703.0,289.576,-319.372,0,0
174004.625,310.901,-302.687,0,0
175306.25,330.572,-291.909,0,0
176607.875,349.635,-275.57,0,0
177909.5,373.61,-261.868,0,0
179211.125,404.217,-248.292,0,0
180512.75,436.519,-241.255,0,0
181814.375,470.166,-238.383,0,0
183116.0,505.718,-240.339,0,0
184417.625,537.451,-244.41,0,0
185719.25,571.241,-247.871,0,0
187021,614.519,-257.783,0,0
188322,654.346,-274.19,0,0
189624,691.936,-302.157,0,0
190926,727.25,-321.688,0,0
192227,778.87,-354.825,0,0
193529,818.251,-406.111,0,0
194831,860.272,-474.409,0,0
196132,872.521,-560.196,0,0
197434,859.906,-652.879,0,0
198735,812.604,-726.288,0,0
200037,757.517,-783.568,0,0
201339,690.189,-808.606,0,0
202640.35,637.235,-823.67,0,0
203941.975,585.236,-822.521,0,0
205243.6,542.613,-814.727,0,0
206545.225,504.689,-797.034,0,0
207846.85,486.436,-770.863,0,0
209148.475,478.457,-755.27,0,0
210450.1,473.939,-740.43,0,0
211751.725,478.319,-730.242,0,0
213053.35,486.645,-733.626,0,0
214354.975,483.627,-745.519,0,0
215656.6,473.056,-751.429,0,0
216958.225,464.221,-748.385,0,0
218259.85,468.408,-746.791,0,0
219561,473.859,-755.795,0,0
220863,477.523,-772.159,0,0
222165,472.977,-797.149,0,0
223466,455.946,-822.319,0,0
224768,432.461,-840.104,0,0
226070,404.071,-853.344,0,0
227371,373.198,-858.66,0,0
228673,344.082,-856.265,0,0
229974,320.277,-851.326,0,0
231276,296.184,-845.647,0,0
232578,273.013,-836.374,0,0
233879,251.668,-823.824,0,0
235180.95,233.178,-807.753,0,0
236482.575,220.489,-789.862,0,0
237784.2,212.233,-773.857,0,0
239085.825,206.474,-759.83,0,0
240387.45,201.555,-749.496,0,0
241689.075,194.697,-739.255,0,0
242990.7,188.084,-727.998,0,0
244292.325,183.344,-716.169,0,0
245593.95,178.7,-705.393,0,0
246895.575,175.173,-692.686,0,0
248197.2,174.128,-681.363,0,0
249498.825,172.458,-670.262,0,0
250800,173.393,-657.678,0,0
252102,178.189,-646.623,0,0
253404,183.888,-641.198,0,0
254705,185.793,-635.775,0,0
256007,189.633,-628.894,0,0
257309,195.086,-624.723,0,0
258610,200.187,-621.827,0,0
259912,205.333,-620.98,0,0
261213,209.228,-621.777,0,0
262515,210.829,-622.658,0,0
263817,211.756,-622.516,0,0
265118,213.787,-620.36,0,0
266420,221.186,-618.542,0,0
267721.55,232.173,-623.337,0,0
269023.175,240.77,-636.955,0,0
270324.8,240.656,-655.86,0,0
271626.425,232.437,-674.696,0,0
272928.05,215.559,-690.499,0,0
274229.675,192.857,-697.898,0,0
275531.3,170.017,-696.048,0,0
276832.925,152.357,-687.742,0,0
278134.55,139.185,-678.325,0,0
279436.175,128.337,-667.486,0,0
280737.8,121.963,-655.315,0,0
282039.425,118.806,-645.688,0,0
283341,117.02,-637.661,0,0
284643,115.772,-631.333,0,0
285944,115.112,-625.68,0,0
287246,116.218,-622.842,0,0
288548,114.214,-623.916,0,0
289849,108.431,-623.87,0,0
291151,101.932,-621.539,0,0
292452,94.6058,-618.78,0,0
293754,86.7062,-613.258,0,0
295056,80.534,-605.969,0,0
296357,75.7875,-598.412,0,0
297659,72.066,-590.749,0,0
298960.525,69.3921,-582.973,0,0
300262.15,67.6022,-575.421,0,0
301563.775,66.8954,-568.067,0,0
302865.4,67.1585,-561.636,0,0
304167.025,67.7082,-556.347,0,0
305468.65,68.1917,-551.781,0,0
306770.275,68.5962,-547.761,0,0
308071.9,68.9004,-544.422,0,0
309373.525,68.7367,-541.92,0,0
310675.15,67.4736,-539.187,0,0
311976.775,66.1659,-536.192,0,0
313278.4,64.533,-533.201,0,0
314580,62.6292,-529.732,0,0
315882,61.1936,-525.625,0,0
317183,60.2784,-521.512,0,0
318485,59.9102,-517.923,0,0
319787,59.5805,-514.787,0,0
321088,59.0707,-512.352,0,0
322390,57.8563,-509.961,0,0
323691,56.3817,-507.653,0,0
324993,54.128,-505.033,0,0
326295,51.8416,-501.642,0,0
327596,49.9165,-497.954,0,0
328898,48.1476,-494.117,0,0
330200,46.6702,-490.003,0,0
331501.125,45.3453,-485.893,0,0
332802.75,44.3306,-481.589,0,0
334104.375,43.7793,-477.178,0,0
335406.0,43.6624,-473.06,0,0
336707.625,43.7625,-469.508,0,0
338009.25,43.6805,-466.353,0,0
339310.875,43.4357,-463.314,0,0
340612.5,42.9019,-460.264,0,0
341914.125,42.248,-457.197,0,0
343215.75,41.476,-453.915,0,0
344517.375,40.8141,-450.331,0,0
345819.0,40.3692,-446.613,0,0
347121,40.2385,-442.879,0,0
348422,40.386,-439.291,0,0
349724,40.7088,-435.836,0,0
351025,41.1776,-432.635,0,0
352327,41.5969,-429.71,0,0
353629,41.9495,-426.85,0,0
354930,42.4341,-424.096,0,0
356232,42.7156,-421.59,0,0
357534,42.7539,-419.168,0,0
358835,42.7233,-416.508,0,0
360137,42.6493,-413.743,0,0
361438,42.7441,-410.853,0,0
362740.1,42.9402,-407.81,0,0
364041.725,43.4977,-404.754,0,0
365343.35,44.324,-401.815,0,0
366644.975,45.3933,-399.257,0,0
367946.6,46.3735,-397.08,0,0
369248.225,47.3327,-394.884,0,0
370549.85,48.5533,-392.901,0,0
371851.475,49.732,-391.65,0,0
373153.1,50.4025,-390.858,0,0
374454.725,50.1708,-389.935,0,0
375756.35,49.7865,-388.384,0,0
377057.975,49.7891,-386.704,0,0
378359.6,49.649,-385.487,0,0
379661,48.9551,-383.683,0,0
380963,49.3828,-381.572,0,0
382264,49.5973,-381.2,0,0
383566,47.8269,-380.29,0,0
384868,46.1988,-378.042,0,0
386169,45.0713,-375.307,0,0
387471,44.3533,-372.38,0,0
388773,44.0853,-369.318,0,0
390074,44.2469,-366.526,0,0
391376,44.3831,-364.108,0,0
392677,44.4111,-361.741,0,0
393979,44.3462,-359.302,0,0
395280.7,44.3522,-356.703,0,0
396582.325,44.6274,-354.106,0,0
397883.95,44.9679,-351.732,0,0
399185.575,45.1526,-349.402,0,0
400006.6,45.3092,-347.915,0,0