Folder: ML_Dmg_Mehdi_Dataset/Accelerated corrosion test data/2025-10-15_18-00-03 (part 2)

File: sample_3.csv
Frequency (Hz),Impedance (ohms),Phase (Radians),Temperature (C),Humidity (%)
10000.0,250.992,-11860.4,0,0
11301.625,223.63,-10505.6,0,0
12603.25,202.716,-9428.72,0,0
13904.875,185.717,-8550.2,0,0
15206.5,173.015,-7815.17,0,0
16508.125,161.282,-7217.16,0,0
17809.75,157.237,-6685.06,0,0
19111.375,146.36,-6232.42,0,0
20413.0,160.941,-5826.53,0,0
21714.625,138.438,-5505.4,0,0
23016.25,128.077,-5198.22,0,0
24317.875,119.257,-4917.56,0,0
25619.5,113.761,-4668.72,0,0
26921.1,108.396,-4437.26,0,0
28222.7,103.909,-4228.67,0,0
29524.4,108.761,-4050.95,0,0
30826,101.285,-3878.23,0,0
32127.6,101.572,-3712.12,0,0
33429.2,99.1566,-3587.45,0,0
34730.9,87.9998,-3448.8,0,0
36032.5,83.2283,-3319.77,0,0
37334.1,80.042,-3201.4,0,0
38635.7,77.95,-3090.68,0,0
39937.4,75.5604,-2987.63,0,0
41239,74.336,-2890.19,0,0
42540.6,72.9277,-2800.03,0,0
43842.225,71.7422,-2713.7,0,0
45143.85,70.976,-2633.93,0,0
46445.475,69.5834,-2557.64,0,0
47747.1,69.9161,-2484.52,0,0
49048.725,68.5013,-2418.72,0,0
50350.35,66.6088,-2353.14,0,0
51651.975,66.1659,-2289.97,0,0
52953.6,66.4378,-2229.94,0,0
54255.225,69.4269,-2174.59,0,0
55556.85,66.6858,-2127.03,0,0
56858.475,61.7233,-2073.88,0,0
58160.1,61.224,-2021.51,0,0
59461.7,61.6137,-1972.07,0,0
60763.3,63.0938,-1925.13,0,0
62065,64.942,-1880.07,0,0
63366.6,69.0126,-1836.28,0,0
64668.2,77.9605,-1794.1,0,0
65969.8,92.1619,-1768.79,0,0
67271.5,75.8138,-1743.28,0,0
68573.1,76.2911,-1705.55,0,0
69874.7,76.0771,-1676.06,0,0
71176.3,70.8412,-1645.37,0,0
72478,69.6772,-1612.55,0,0
73779.6,68.0709,-1584.06,0,0
75081.2,64.4127,-1555.75,0,0
76382.825,60.8234,-1526.38,0,0
77684.45,58.2855,-1497.27,0,0
78986.075,56.0689,-1468.65,0,0
80287.7,54.489,-1440.39,0,0
81589.325,53.4245,-1413.01,0,0
82890.95,52.8677,-1386.46,0,0
84192.575,52.6045,-1360.63,0,0
85494.2,52.4931,-1335.49,0,0
86795.825,52.6806,-1311.05,0,0
88097.45,53.2209,-1287,0,0
89399.075,54.4503,-1263.21,0,0
90700.7,56.8145,-1241.35,0,0
92002.3,59.0925,-1220.61,0,0
93303.9,61.9721,-1201.61,0,0
94605.6,62.5905,-1186.97,0,0
95907.2,57.5439,-1169,0,0
97208.8,56.2645,-1147.61,0,0
98510.4,56.0247,-1127.86,0,0
99812.1,55.5563,-1108.73,0,0
101114,55.1566,-1088.84,0,0
102415,56.5457,-1068.21,0,0
103717,60.5111,-1050.57,0,0
105019,63.6142,-1036.24,0,0
106320.175,63.0463,-1022.31,0,0
107621.8,61.0071,-1006.62,0,0
108923.425,59.191,-989.078,0,0
110225.05,59.2626,-970.494,0,0
111526.675,61.4052,-952.553,0,0
112828.3,63.6693,-936.422,0,0
114129.925,65.2043,-920.413,0,0
115431.55,67.3113,-903.427,0,0
116733.175,70.9891,-886.715,0,0
118034.8,77.0252,-870.702,0,0
119336.425,83.5109,-858.704,0,0
120638.05,89.8269,-852.598,0,0
121939.675,86.7512,-844.149,0,0
123241,87.1997,-830.629,0,0
124543,88.8263,-819.237,0,0
125845,90.3043,-808.756,0,0
127146,89.7226,-798.979,0,0
128448,88.1334,-788.185,0,0
129749,86.689,-775.265,0,0
131051,87.7253,-762.328,0,0
132353,87.1143,-751.307,0,0
133654,86.3021,-739.54,0,0
134956,84.6966,-726.829,0,0
136258,83.2345,-713.463,0,0
137559,82.8415,-698.158,0,0
138860.775,84.1361,-684.363,0,0
140162.4,83.4767,-670.963,0,0
141464.025,82.9582,-656.658,0,0
142765.65,82.2269,-640.612,0,0
144067.275,82.5681,-623.345,0,0
145368.9,84.2758,-605.175,0,0
146670.525,86.9258,-586.296,0,0
147972.15,91.2415,-566.246,0,0
149273.775,97.8014,-545.894,0,0
150575.4,108.449,-525.667,0,0
151877.025,121.216,-508.662,0,0
153178.65,133.591,-495.214,0,0
154480,143.606,-483.058,0,0
155782,151.988,-466.565,0,0
157084,163.875,-449.139,0,0
158385,180.286,-438.016,0,0
159687,184.644,-423.502,0,0
160988,200.136,-395.992,0,0
162290,225.972,-370.511,0,0
163592,260.635,-348.504,0,0
164893,310.262,-336.955,0,0
166195,362.006,-349.633,0,0
167497,401.415,-381.101,0,0
168798,423.497,-418.145,0,0
170100,421.949,-460.475,0,0
171401.375,406.23,-475.235,0,0
172703.0,403.223,-476.528,0,0
174004.625,411.833,-487.576,0,0
175306.25,413.229,-504.034,0,0
176607.875,411.538,-521.881,0,0
177909.5,389.743,-539.958,0,0
179211.125,366.775,-532.17,0,0
180512.75,362.239,-518.975,0,0
181814.375,367.318,-515.724,0,0
183116.0,360.389,-521.956,0,0
184417.625,345.289,-519.663,0,0
185719.25,331.101,-505.913,0,0
187021,326.669,-483.332,0,0
188322,333.037,-465.639,0,0
189624,337.536,-450.794,0,0
190926,347.606,-436.593,0,0
192227,356.205,-423.289,0,0
193529,367.205,-403.94,0,0
194831,391.072,-386.931,0,0
196132,423.487,-380.688,0,0
197434,446.824,-392.376,0,0
198735,460.804,-398.68,0,0
200037,470.586,-404.489,0,0
201339,476.42,-398.635,0,0
202640.35,497.092,-389.041,0,0
203941.975,527.132,-389.401,0,0
205243.6,555.29,-403.061,0,0
206545.225,567.586,-418.214,0,0
207846.85,587.825,-417.68,0,0
209148.475,620.5,-427.234,0,0
210450.1,653.31,-449.933,0,0
211751.725,679.827,-482.236,0,0
213053.35,701.024,-517.157,0,0
214354.975,715.493,-560.033,0,0
215656.6,722.609,-605.859,0,0
216958.225,719.245,-652.04,0,0
218259.85,706.78,-696.104,0,0
219561,688.251,-733.116,0,0
220863,668.974,-771.019,0,0
222165,639.573,-809.961,0,0
223466,593.187,-836.51,0,0
224768,551.821,-838.166,0,0
226070,530.707,-836.776,0,0
227371,512.62,-846.029,0,0
228673,486.797,-858.058,0,0
229974,459.722,-863.969,0,0
231276,431.703,-867.455,0,0
232578,404.424,-866.376,0,0
233879,379.591,-862.973,0,0
235180.95,356.416,-858.544,0,0
236482.575,331.826,-853.803,0,0
237784.2,307.148,-845.274,0,0
239085.825,283.1,-830.653,0,0
240387.45,265.822,-813.473,0,0
241689.075,251.22,-795.728,0,0
242990.7,242.412,-777.217,0,0
244292.325,237.892,-762.396,0,0
245593.95,232.362,-750.869,0,0
246895.575,227.125,-738.719,0,0
248197.2,222.994,-727.08,0,0
249498.825,222.386,-716.278,0,0
250800,220.163,-710.787,0,0
252102,213.484,-704.394,0,0
253404,205.389,-693.433,0,0
254705,200.704,-678.265,0,0
256007,201.382,-661.693,0,0
257309,208.931,-648.191,0,0
258610,216.244,-639.371,0,0
259912,227.903,-630.843,0,0
261213,244.11,-631.576,0,0
262515,254.156,-644.556,0,0
263817,251.957,-659.291,0,0
265118,241.191,-669.535,0,0
266420,226.759,-672.391,0,0
267721.55,212.775,-667.766,0,0
269023.175,203.642,-658.716,0,0
270324.8,198.062,-648.984,0,0
271626.425,196.766,-639.353,0,0
272928.05,196.711,-633.088,0,0
274229.675,196.276,-624.783,0,0
275531.3,200.262,-617.113,0,0
276832.925,207.593,-612.998,0,0
278134.55,215.133,-615.144,0,0
279436.175,218.664,-622.018,0,0
280737.8,216.234,-630.346,0,0
282039.425,209.16,-635.756,0,0
283341,200.13,-637.655,0,0
284643,190.8,-636.112,0,0
285944,182.426,-631.541,0,0
287246,176.698,-624.609,0,0
288548,174.937,-617.784,0,0
289849,174.479,-613.815,0,0
291151,173.25,-611.287,0,0
292452,170.35,-608.384,0,0
293754,168.791,-603.108,0,0
295056,170.672,-599.12,0,0
296357,173.43,-598.92,0,0
297659,173.849,-601.868,0,0
298960.525,170.75,-605.103,0,0
300262.15,165.618,-607.108,0,0
301563.775,159.079,-607.551,0,0
302865.4,152.067,-605.811,0,0
304167.025,145.788,-602.615,0,0
305468.65,140.228,-598.077,0,0
306770.275,136.311,-592.981,0,0
308071.9,133.85,-588.335,0,0
309373.525,131.736,-585.013,0,0
310675.15,129.015,-582.434,0,0
311976.775,124.907,-579.756,0,0
313278.4,120.242,-575.388,0,0
314580,116.517,-569.286,0,0
315882,115.284,-562.451,0,0
317183,116.008,-557.265,0,0
318485,116.447,-553.82,0,0
319787,116.482,-550.755,0,0
321088,116.751,-547.869,0,0
322390,117.816,-545.923,0,0
323691,118.318,-545.848,0,0
324993,117.147,-546.973,0,0
326295,113.68,-547.592,0,0
327596,109.266,-546.833,0,0
328898,104.647,-544.942,0,0
330200,100.447,-542.212,0,0
331501.125,96.1807,-539.189,0,0
332802.75,91.83,-535.501,0,0
334104.375,87.4734,-531.072,0,0
335406.0,83.6853,-525.586,0,0
336707.625,80.7964,-519.508,0,0
338009.25,78.8306,-513.261,0,0
339310.875,77.6008,-506.671,0,0
340612.5,77.7352,-499.773,0,0
341914.125,79.6737,-493.867,0,0
343215.75,82.4386,-489.922,0,0
344517.375,84.3372,-488.016,0,0
345819.0,84.5386,-486.323,0,0
347121,84.2244,-484.071,0,0
348422,83.4616,-481.655,0,0
349724,82.8919,-478.041,0,0
351025,83.8777,-474.352,0,0
352327,85.6731,-472.524,0,0
353629,85.8745,-472.238,0,0
354930,84.3782,-471.239,0,0
356232,82.7407,-469.266,0,0
357534,80.8839,-466.54,0,0
358835,79.8061,-462.92,0,0
360137,79.7197,-459.522,0,0
361438,79.6068,-456.782,0,0
362740.1,79.2826,-453.798,0,0
364041.725,79.9477,-450.396,0,0
365343.35,81.4772,-448.421,0,0
366644.975,81.9651,-448.19,0,0
367946.6,80.3106,-447.553,0,0
369248.225,77.7522,-445.072,0,0
370549.85,77.2602,-440.546,0,0
371851.475,78.9198,-437.955,0,0
373153.1,79.1864,-437.655,0,0
374454.725,77.3682,-436.441,0,0
375756.35,75.4409,-433.632,0,0
377057.975,74.6662,-429.81,0,0
378359.6,75.0785,-426.374,0,0
379661,76.0039,-423.704,0,0
380963,76.8134,-422.082,0,0
382264,76.8283,-420.633,0,0
383566,76.7416,-419.188,0,0
384868,75.8632,-417.909,0,0
386169,74.5867,-415.947,0,0
387471,73.2282,-413.412,0,0
388773,72.005,-410.074,0,0
390074,71.5885,-406.047,0,0
391376,72.2397,-401.824,0,0
392677,74.2491,-398.141,0,0
393979,76.7827,-395.85,0,0
395280.7,79.0254,-394.605,0,0
396582.325,80.9127,-394.168,0,0
397883.95,81.9821,-394.548,0,0
399185.575,81.9074,-394.97,0,0
400006.6,81.4871,-395.076,0,0

File: sample_4.csv
Frequency (Hz),Impedance (ohms),Phase (Radians),Temperature (C),Humidity (%)
10000.0,263.044,-11902.5,0,0
11301.625,233.872,-10544.9,0,0
12603.25,212.714,-9459.82,0,0
13904.875,192.752,-8577.45,0,0
15206.5,180.57,-7850.66,0,0
16508.125,192.037,-7235.23,0,0
17809.75,155.353,-6726.57,0,0
19111.375,144.966,-6268.09,0,0
20413.0,140.229,-5866.44,0,0
21714.625,146.166,-5520.87,0,0
23016.25,124.838,-5219.91,0,0
24317.875,115.887,-4934.04,0,0
25619.5,111.721,-4680.42,0,0
26921.1,105.938,-4450.7,0,0
28222.7,119.368,-4247.8,0,0
29524.4,112.04,-4067.56,0,0
30826,98.336,-3895.38,0,0
32127.6,99.686,-3734.35,0,0
33429.2,89.5768,-3593.36,0,0
34730.9,84.5897,-3454.57,0,0
36032.5,81.4342,-3326.84,0,0
37334.1,79.4244,-3207.63,0,0
38635.7,76.8969,-3095.35,0,0
39937.4,76.8904,-2989.2,0,0
41239,79.5238,-2895.03,0,0
42540.6,78.321,-2806.25,0,0
43842.225,73.181,-2722.89,0,0
45143.85,71.0425,-2641.74,0,0
46445.475,69.9603,-2564.26,0,0
47747.1,70.0809,-2494.43,0,0
49048.725,65.9344,-2424.82,0,0
50350.35,64.3086,-2357.31,0,0
51651.975,63.7179,-2292.49,0,0
52953.6,65.2005,-2229.53,0,0
54255.225,73.6774,-2173.05,0,0
55556.85,71.7932,-2129.78,0,0
56858.475,65.4081,-2075.6,0,0
58160.1,66.5148,-2023.12,0,0
59461.7,70.7625,-1972.76,0,0
60763.3,79.7839,-1934.12,0,0
62065,69.8675,-1901.26,0,0
63366.6,64.164,-1855.73,0,0
64668.2,64.4222,-1812.12,0,0
65969.8,66.3414,-1771.36,0,0
67271.5,70.3935,-1735.3,0,0
68573.1,73.717,-1706.37,0,0
69874.7,66.3099,-1676.11,0,0
71176.3,64.7051,-1641.73,0,0
72478,59.216,-1610.29,0,0
73779.6,57.7389,-1573.91,0,0
75081.2,59.7482,-1540.92,0,0
76382.825,62.2421,-1511.95,0,0
77684.45,65.0239,-1484.25,0,0
78986.075,63.7953,-1461.75,0,0
80287.7,60.8663,-1434.74,0,0
81589.325,60.3208,-1408.78,0,0
82890.95,59.0379,-1383.64,0,0
84192.575,57.8264,-1358.71,0,0
85494.2,57.0081,-1334.38,0,0
86795.825,56.2996,-1310.72,0,0
88097.45,54.8552,-1288.05,0,0
89399.075,53.4744,-1263.73,0,0
90700.7,53.3918,-1240.49,0,0
92002.3,53.6783,-1217.31,0,0
93303.9,54.8769,-1196.41,0,0
94605.6,53.5255,-1176.05,0,0
95907.2,52.9719,-1153.48,0,0
97208.8,53.8189,-1131.7,0,0
98510.4,55.175,-1110.1,0,0
99812.1,57.7607,-1089.28,0,0
101114,62.0927,-1070.84,0,0
102415,61.2647,-1056.36,0,0
103717,58.4094,-1033.51,0,0
105019,62.1741,-1009.86,0,0
106320.175,68.8236,-989.371,0,0
107621.8,75.7526,-971.469,0,0
108923.425,84.2465,-954.829,0,0
110225.05,92.5613,-942.391,0,0
111526.675,98.6547,-931.866,0,0
112828.3,103.512,-922.147,0,0
114129.925,106.73,-913.515,0,0
115431.55,108.468,-905.22,0,0
116733.175,107.89,-896.752,0,0
118034.8,105.683,-885.906,0,0
119336.425,106.507,-871.744,0,0
120638.05,111.786,-866.528,0,0
121939.675,104.759,-860.206,0,0
123241,100.008,-847.764,0,0
124543,96.8663,-835.005,0,0
125845,94.9881,-822.743,0,0
127146,91.6117,-811.62,0,0
128448,86.7514,-799.992,0,0
129749,80.1378,-785.215,0,0
131051,75.33,-767.319,0,0
132353,72.8078,-748.532,0,0
133654,72.1081,-729.645,0,0
134956,72.7624,-710.783,0,0
136258,74.8205,-692.284,0,0
137559,77.434,-675.006,0,0
138860.775,79.3424,-656.959,0,0
140162.4,82.7399,-637.953,0,0
141464.025,87.7607,-618.958,0,0
142765.65,93.7039,-600.629,0,0
144067.275,100.312,-582.266,0,0
145368.9,108.103,-563.471,0,0
146670.525,117.713,-544.84,0,0
147972.15,128.534,-526.853,0,0
149273.775,141.011,-508.973,0,0
150575.4,155.759,-490.797,0,0
151877.025,174.48,-474.318,0,0
153178.65,196.781,-462.295,0,0
154480,218.419,-457.121,0,0
155782,235.381,-453.441,0,0
157084,250.344,-451.051,0,0
158385,265.615,-445.301,0,0
159687,286.971,-443.037,0,0
160988,303.494,-450.947,0,0
162290,310.705,-455.932,0,0
163592,315.974,-455.891,0,0
164893,324.388,-449.836,0,0
166195,339.722,-442.197,0,0
167497,366.719,-441.391,0,0
168798,393.016,-456.96,0,0
170100,411.248,-485.588,0,0
171401.375,407.852,-523.771,0,0
172703.0,383.498,-550.078,0,0
174004.625,350.071,-555.768,0,0
175306.25,322.145,-544.789,0,0
176607.875,304.006,-522.898,0,0
177909.5,297.501,-499.383,0,0
179211.125,296.857,-478.133,0,0
180512.75,300.659,-459.294,0,0
181814.375,304.679,-442.802,0,0
183116.0,307.779,-425.607,0,0
184417.625,312.09,-404.662,0,0
185719.25,320.531,-380.976,0,0
187021,333.077,-355.765,0,0
188322,351.097,-328.558,0,0
189624,376.196,-300.848,0,0
190926,410.044,-274.585,0,0
192227,452.645,-252.404,0,0
193529,503.416,-238.154,0,0
194831,558.964,-233.251,0,0
196132,618.252,-235.993,0,0
197434,685.052,-248.834,0,0
198735,757.658,-279.904,0,0
200037,828.133,-337.825,0,0
201339,877.275,-420.144,0,0
202640.35,896.392,-509.562,0,0
203941.975,895.967,-593.542,0,0
205243.6,874.958,-670.047,0,0
206545.225,846.031,-734.627,0,0
207846.85,806.301,-798.682,0,0
209148.475,747.082,-844.101,0,0
210450.1,688.695,-865.265,0,0
211751.725,638.311,-871.348,0,0
213053.35,599.973,-869.407,0,0
214354.975,571.132,-862.435,0,0
215656.6,555.517,-862.761,0,0
216958.225,534.323,-870.62,0,0
218259.85,512.802,-874.687,0,0
219561,492.204,-879.623,0,0
220863,469.06,-885.181,0,0
222165,445.367,-887.381,0,0
223466,422.476,-887.755,0,0
224768,400.41,-888.903,0,0
226070,374.652,-889.809,0,0
227371,346.488,-886.003,0,0
228673,317.903,-876.131,0,0
229974,293.947,-860.062,0,0
231276,275.261,-842.351,0,0
232578,260.768,-824.433,0,0
233879,249.972,-807.052,0,0
235180.95,241.907,-790.827,0,0
236482.575,235.205,-776.414,0,0
237784.2,230.065,-761.402,0,0
239085.825,228.415,-748.476,0,0
240387.45,227.355,-738.688,0,0
241689.075,225.658,-731.038,0,0
242990.7,222.541,-725.03,0,0
244292.325,217.448,-719.097,0,0
245593.95,210.778,-711.114,0,0
246895.575,205.507,-701.09,0,0
248197.2,202.619,-690.993,0,0
249498.825,200,-681.921,0,0
250800,197.977,-673.897,0,0
252102,193.873,-666.669,0,0
253404,187.834,-656.243,0,0
254705,183.893,-642.827,0,0
256007,181.758,-626.301,0,0
257309,185.102,-607.678,0,0
258610,194.173,-589.86,0,0
259912,209.695,-575.596,0,0
261213,227.897,-566.299,0,0
262515,248.293,-563.576,0,0
263817,270.223,-567.485,0,0
265118,287.938,-580.474,0,0
266420,300.08,-597.057,0,0
267721.55,306.716,-617.709,0,0
269023.175,303.733,-641.607,0,0
270324.8,289.193,-657.367,0,0
271626.425,277.964,-665.039,0,0
272928.05,268.186,-673.373,0,0
274229.675,255.463,-682.15,0,0
275531.3,237.242,-688.565,0,0
276832.925,216.659,-687.762,0,0
278134.55,196.968,-677.859,0,0
279436.175,186.733,-661.493,0,0
280737.8,185.717,-649.96,0,0
282039.425,183.376,-643.182,0,0
283341,183.265,-635.855,0,0
284643,182.741,-633.738,0,0
285944,178.515,-631.972,0,0
287246,171.997,-626.506,0,0
288548,166.54,-617.065,0,0
289849,167.985,-603.21,0,0
291151,177.881,-594.343,0,0
292452,190.388,-594.14,0,0
293754,199.054,-602.907,0,0
295056,199.797,-615.479,0,0
296357,191.763,-626.357,0,0
297659,180.06,-630.237,0,0
298960.525,170.076,-629.745,0,0
300262.15,161.51,-628.239,0,0
301563.775,153.058,-625.467,0,0
302865.4,145.646,-621.381,0,0
304167.025,138.714,-616.456,0,0
305468.65,133.186,-610.399,0,0
306770.275,129.172,-604.218,0,0
308071.9,126.873,-598.635,0,0
309373.525,125.157,-594.724,0,0
310675.15,122.181,-591.732,0,0
311976.775,118.558,-587.714,0,0
313278.4,115.627,-583.081,0,0
314580,113.776,-578.481,0,0
315882,112.461,-574.747,0,0
317183,111.295,-571.855,0,0
318485,109.677,-569.801,0,0
319787,107.539,-568.752,0,0
321088,103.396,-567.893,0,0
322390,97.1653,-566.166,0,0
323691,90.2026,-561.099,0,0
324993,85.6142,-554.028,0,0
326295,82.6259,-547.352,0,0
327596,79.8729,-540.687,0,0
328898,78.1625,-533.47,0,0
330200,77.8892,-526.31,0,0
331501.125,79.0841,-520.352,0,0
332802.75,80.5962,-516.265,0,0
334104.375,80.7587,-513.493,0,0
335406.0,79.5104,-510.556,0,0
336707.625,77.2735,-506.359,0,0
338009.25,75.8319,-500.671,0,0
339310.875,75.4814,-494.474,0,0
340612.5,76.5828,-487.93,0,0
341914.125,79.6572,-482.055,0,0
343215.75,84.1553,-478.482,0,0
344517.375,87.9377,-477.668,0,0
345819.0,89.7715,-478.13,0,0
347121,89.6897,-478.598,0,0
348422,88.3902,-478.369,0,0
349724,86.4017,-476.98,0,0
351025,84.3398,-474.814,0,0
352327,82.4105,-471.763,0,0
353629,81.3578,-467.715,0,0
354930,81.5242,-464.503,0,0
356232,81.4073,-461.945,0,0
357534,80.9049,-459.523,0,0
358835,79.7715,-456.795,0,0
360137,78.7297,-453.252,0,0
361438,78.309,-449.072,0,0
362740.1,78.991,-445.171,0,0
364041.725,79.612,-442.075,0,0
365343.35,79.7213,-438.89,0,0
366644.975,79.9501,-434.541,0,0
367946.6,81.6123,-429.775,0,0
369248.225,84.7059,-425.474,0,0
370549.85,88.9664,-422.225,0,0
371851.475,94.4152,-420.861,0,0
373153.1,99.4048,-422.508,0,0
374454.725,101.733,-426.232,0,0
375756.35,101.11,-428.911,0,0
377057.975,100.076,-430.144,0,0
378359.6,99.0857,-430.947,0,0
379661,97.6157,-431.543,0,0
380963,95.8646,-431.421,0,0
382264,95.0573,-430.125,0,0
383566,95.831,-430.985,0,0
384868,93.8956,-434.007,0,0
386169,88.9774,-435.54,0,0
387471,83.1137,-433.839,0,0
388773,79.1305,-429.425,0,0
390074,78.3391,-424.791,0,0
391376,79.3504,-423.094,0,0
392677,78.0274,-424.032,0,0
393979,73.774,-423.662,0,0
395280.7,69.2285,-420.783,0,0
396582.325,65.8828,-416.532,0,0
397883.95,63.4064,-412.08,0,0
399185.575,61.4847,-407.322,0,0
400006.6,60.6403,-404.076,0,0