Folder: ML_Dmg_Mehdi_Dataset/Accelerated corrosion test data/2025-10-07_06-00-03 (part 2)

File: sample_3.csv
Frequency (Hz),Impedance (ohms),Phase (Radians),Temperature (C),Humidity (%)
10000.0,251.642,-11785.5,0,0
11301.625,224.405,-10439.3,0,0
12603.25,203.26,-9368.92,0,0
13904.875,185.373,-8496.84,0,0
15206.5,172.919,-7767.84,0,0
16508.125,162.002,-7172.67,0,0
17809.75,157.584,-6643.81,0,0
19111.375,146.633,-6192.72,0,0
20413.0,157.337,-5789.92,0,0
21714.625,138.549,-5471.88,0,0
23016.25,128.186,-5166.52,0,0
24317.875,118.803,-4887.52,0,0
25619.5,113.63,-4639.85,0,0
26921.1,108.138,-4409.69,0,0
28222.7,103.876,-4203.53,0,0
29524.4,110.299,-4024.76,0,0
30826,100.641,-3853.97,0,0
32127.6,101.338,-3690.06,0,0
33429.2,99.5734,-3564.7,0,0
34730.9,88.0488,-3427.6,0,0
36032.5,83.395,-3299.76,0,0
37334.1,80.4799,-3181.84,0,0
38635.7,78.0916,-3071.97,0,0
39937.4,75.9391,-2969.57,0,0
41239,74.4385,-2872.41,0,0
42540.6,73.438,-2783.03,0,0
43842.225,72.0459,-2697.4,0,0
45143.85,71.085,-2617.7,0,0
46445.475,69.9872,-2542.12,0,0
47747.1,70.3203,-2469.38,0,0
49048.725,68.664,-2404.21,0,0
50350.35,66.7433,-2338.9,0,0
51651.975,66.2254,-2276.38,0,0
52953.6,66.562,-2216.67,0,0
54255.225,69.3579,-2161.79,0,0
55556.85,66.9424,-2114.4,0,0
56858.475,61.8815,-2061.63,0,0
58160.1,61.2808,-2009.63,0,0
59461.7,61.751,-1960.48,0,0
60763.3,63.0931,-1913.79,0,0
62065,65.3204,-1869.29,0,0
63366.6,68.7344,-1825.63,0,0
64668.2,77.335,-1783.49,0,0
65969.8,91.7842,-1757.96,0,0
67271.5,76.4945,-1732.91,0,0
68573.1,76.3211,-1695.54,0,0
69874.7,76.0178,-1666.36,0,0
71176.3,70.7436,-1636.02,0,0
72478,69.4129,-1603.19,0,0
73779.6,67.7419,-1574.91,0,0
75081.2,64.1631,-1546.61,0,0
76382.825,60.6377,-1517.44,0,0
77684.45,58.2524,-1488.56,0,0
78986.075,55.9191,-1460.06,0,0
80287.7,54.4121,-1431.96,0,0
81589.325,53.4293,-1404.82,0,0
82890.95,52.8217,-1378.4,0,0
84192.575,52.588,-1352.66,0,0
85494.2,52.466,-1327.68,0,0
86795.825,52.6221,-1303.42,0,0
88097.45,53.2049,-1279.38,0,0
89399.075,54.5685,-1255.69,0,0
90700.7,56.9274,-1233.81,0,0
92002.3,59.4009,-1212.99,0,0
93303.9,62.656,-1194.18,0,0
94605.6,63.927,-1179.69,0,0
95907.2,58.4066,-1162.41,0,0
97208.8,57.2185,-1141.39,0,0
98510.4,57.0608,-1122.07,0,0
99812.1,56.345,-1103.36,0,0
101114,55.6812,-1083.74,0,0
102415,56.8003,-1063.21,0,0
103717,60.6845,-1045.38,0,0
105019,64.1997,-1031.5,0,0
106320.175,63.2622,-1018.16,0,0
107621.8,60.4897,-1002.36,0,0
108923.425,58.664,-984.556,0,0
110225.05,58.7681,-965.804,0,0
111526.675,61.1584,-948.087,0,0
112828.3,63.2413,-931.964,0,0
114129.925,64.8243,-915.934,0,0
115431.55,66.9023,-899.073,0,0
116733.175,70.7592,-882.424,0,0
118034.8,76.3941,-866.741,0,0
119336.425,83.0934,-855.028,0,0
120638.05,88.7115,-848.484,0,0
121939.675,86.4323,-840.04,0,0
123241,86.7706,-826.88,0,0
124543,88.2884,-815.644,0,0
125845,89.419,-805.36,0,0
127146,88.837,-795.616,0,0
128448,87.0634,-784.765,0,0
129749,85.3048,-771.628,0,0
131051,86.3836,-758.514,0,0
132353,85.8942,-747.429,0,0
133654,85.3111,-735.341,0,0
134956,83.842,-722.911,0,0
136258,82.5979,-709.306,0,0
137559,82.4189,-694.286,0,0
138860.775,83.8016,-680.779,0,0
140162.4,82.9405,-667.354,0,0
141464.025,82.812,-653.088,0,0
142765.65,82.1955,-637.299,0,0
144067.275,82.4695,-620.158,0,0
145368.9,84.04,-602.274,0,0
146670.525,86.6521,-583.446,0,0
147972.15,91.0171,-563.648,0,0
149273.775,97.4974,-543.576,0,0
150575.4,107.762,-523.003,0,0
151877.025,120.492,-506.183,0,0
153178.65,133.288,-492.405,0,0
154480,143.385,-480.19,0,0
155782,151.827,-464.074,0,0
157084,163.347,-447.071,0,0
158385,179.5,-434.533,0,0
159687,185.468,-420.438,0,0
160988,200.256,-391.907,0,0
162290,226.495,-366.864,0,0
163592,262.881,-347.879,0,0
164893,310.091,-335.879,0,0
166195,363.71,-348.235,0,0
167497,402.926,-381.54,0,0
168798,423.409,-419.578,0,0
170100,424.975,-459.996,0,0
171401.375,408.832,-477.456,0,0
172703.0,403.453,-481.079,0,0
174004.625,410.786,-487.843,0,0
175306.25,416.305,-506.073,0,0
176607.875,408.192,-526.217,0,0
177909.5,388.625,-542.198,0,0
179211.125,364.654,-535.502,0,0
180512.75,358.847,-521.42,0,0
181814.375,362.914,-517.207,0,0
183116.0,356.126,-523.804,0,0
184417.625,342.299,-520.889,0,0
185719.25,328.61,-508.754,0,0
187021,322.316,-485.67,0,0
188322,328.423,-466.063,0,0
189624,334.44,-452.003,0,0
190926,344.2,-437.556,0,0
192227,353.596,-423.99,0,0
193529,364.48,-407.136,0,0
194831,387.592,-388.33,0,0
196132,419.33,-384.981,0,0
197434,442.674,-396.489,0,0
198735,454.823,-403.523,0,0
200037,465.153,-405.373,0,0
201339,471.136,-403.675,0,0
202640.35,488.065,-393.689,0,0
203941.975,517.595,-391.117,0,0
205243.6,547.007,-402.128,0,0
206545.225,562.077,-420.112,0,0
207846.85,578.366,-421.275,0,0
209148.475,608.906,-428.248,0,0
210450.1,642.079,-449.104,0,0
211751.725,669.522,-479.211,0,0
213053.35,690.981,-514.456,0,0
214354.975,706.693,-556.22,0,0
215656.6,715.833,-600.701,0,0
216958.225,713.859,-650.495,0,0
218259.85,699.769,-693.904,0,0
219561,679.862,-731.722,0,0
220863,661.862,-769.473,0,0
222165,630.493,-806.757,0,0
223466,587.011,-833.918,0,0
224768,543.396,-837.163,0,0
226070,519.976,-832.894,0,0
227371,504.041,-841.286,0,0
228673,480.066,-853.927,0,0
229974,450.857,-860.901,0,0
231276,422.053,-862.463,0,0
232578,395.911,-860.221,0,0
233879,372.053,-856.298,0,0
235180.95,349.342,-852.064,0,0
236482.575,325.299,-847.47,0,0
237784.2,301.189,-838.666,0,0
239085.825,277.311,-825.111,0,0
240387.45,259.35,-807.056,0,0
241689.075,245.899,-789.311,0,0
242990.7,237.278,-771.194,0,0
244292.325,231.895,-756.037,0,0
245593.95,227.703,-743.929,0,0
246895.575,222.473,-732.638,0,0
248197.2,218.24,-720.772,0,0
249498.825,217.364,-709.659,0,0
250800,216.144,-703.52,0,0
252102,210.294,-697.895,0,0
253404,201.999,-687.86,0,0
254705,197.025,-672.649,0,0
256007,197.191,-655.745,0,0
257309,204.794,-641.248,0,0
258610,213.948,-633.109,0,0
259912,224.243,-625.346,0,0
261213,239.399,-624.901,0,0
262515,250.991,-636.372,0,0
263817,250.511,-651.104,0,0
265118,241.298,-662.771,0,0
266420,226.774,-667.045,0,0
267721.55,212.403,-663.282,0,0
269023.175,202.608,-654.688,0,0
270324.8,197.107,-645.51,0,0
271626.425,194.652,-636.048,0,0
272928.05,194.864,-628.813,0,0
274229.675,194.224,-621.796,0,0
275531.3,196.836,-613.683,0,0
276832.925,204.187,-608.564,0,0
278134.55,212.16,-610.461,0,0
279436.175,215.604,-617.381,0,0
280737.8,213.121,-624.879,0,0
282039.425,206.93,-629.864,0,0
283341,198.227,-631.92,0,0
284643,189.501,-630.411,0,0
285944,181.538,-626.416,0,0
287246,175.832,-619.575,0,0
288548,174.717,-612.709,0,0
289849,174.602,-609.68,0,0
291151,173.143,-607.628,0,0
292452,170.197,-605.292,0,0
293754,168.182,-600.613,0,0
295056,169.649,-596.621,0,0
296357,172.245,-596.684,0,0
297659,172.075,-599.595,0,0
298960.525,168.514,-602.802,0,0
300262.15,163.024,-604.31,0,0
301563.775,156.576,-604.306,0,0
302865.4,149.745,-602.447,0,0
304167.025,143.575,-599.162,0,0
305468.65,138.141,-594.799,0,0
306770.275,133.854,-589.536,0,0
308071.9,131.533,-584.488,0,0
309373.525,129.843,-581.113,0,0
310675.15,127.099,-578.681,0,0
311976.775,123.326,-575.909,0,0
313278.4,118.633,-571.734,0,0
314580,115.018,-565.583,0,0
315882,113.746,-558.82,0,0
317183,114.704,-553.547,0,0
318485,115.525,-550.508,0,0
319787,115.373,-547.958,0,0
321088,115.159,-545.179,0,0
322390,115.917,-542.954,0,0
323691,116.418,-542.801,0,0
324993,115.096,-543.647,0,0
326295,111.996,-543.998,0,0
327596,107.689,-543.313,0,0
328898,103.327,-541.31,0,0
330200,99.2482,-538.72,0,0
331501.125,95.1491,-536.012,0,0
332802.75,90.6843,-532.478,0,0
334104.375,86.3197,-527.958,0,0
335406.0,82.5562,-522.51,0,0
336707.625,79.7947,-516.385,0,0
338009.25,77.8806,-510.36,0,0
339310.875,76.6385,-503.955,0,0
340612.5,76.7596,-497.164,0,0
341914.125,78.6644,-491.418,0,0
343215.75,81.3434,-487.618,0,0
344517.375,83.0031,-485.627,0,0
345819.0,83.2523,-483.904,0,0
347121,82.7915,-481.719,0,0
348422,82.1286,-479.078,0,0
349724,81.7391,-475.622,0,0
351025,82.5337,-472.179,0,0
352327,84.0833,-470.324,0,0
353629,84.2925,-469.92,0,0
354930,82.7514,-469.05,0,0
356232,80.9008,-466.828,0,0
357534,79.3355,-464.027,0,0
358835,78.0916,-460.635,0,0
360137,77.7477,-457.061,0,0
361438,77.7879,-454.066,0,0
362740.1,77.7918,-451.174,0,0
364041.725,78.3031,-447.944,0,0
365343.35,79.7442,-445.881,0,0
366644.975,80.3004,-445.618,0,0
367946.6,78.5399,-445.11,0,0
369248.225,75.9302,-442.421,0,0
370549.85,75.3282,-437.746,0,0
371851.475,77.2472,-434.968,0,0
373153.1,77.7559,-434.573,0,0
374454.725,76.0027,-433.54,0,0
375756.35,74.1641,-430.87,0,0
377057.975,73.2473,-427.107,0,0
378359.6,73.705,-423.553,0,0
379661,74.665,-420.94,0,0
380963,75.4821,-419.149,0,0
382264,75.8134,-417.749,0,0
383566,75.5552,-416.535,0,0
384868,74.709,-415.175,0,0
386169,73.491,-413.142,0,0
387471,72.3024,-410.548,0,0
388773,71.3444,-407.43,0,0
390074,70.9262,-403.622,0,0
391376,71.5404,-399.64,0,0
392677,73.23,-395.964,0,0
393979,75.6848,-393.425,0,0
395280.7,78.1285,-392.135,0,0
396582.325,80.0658,-391.899,0,0
397883.95,81.1064,-392.299,0,0
399185.575,80.9955,-392.879,0,0
400006.6,80.3866,-392.896,0,0

File: sample_4.csv
Frequency (Hz),Impedance (ohms),Phase (Radians),Temperature (C),Humidity (%)
10000.0,264.399,-11865.8,0,0
11301.625,235.122,-10512.4,0,0
12603.25,213.662,-9431.26,0,0
13904.875,194.29,-8551.87,0,0
15206.5,182.212,-7827.46,0,0
16508.125,188.434,-7210.64,0,0
17809.75,156.357,-6705.76,0,0
19111.375,145.563,-6249.61,0,0
20413.0,141.549,-5849.57,0,0
21714.625,145.788,-5503.6,0,0
23016.25,125.788,-5205.03,0,0
24317.875,116.548,-4919.72,0,0
25619.5,112.847,-4667.32,0,0
26921.1,107.253,-4437.93,0,0
28222.7,120.262,-4233.44,0,0
29524.4,112.475,-4055.25,0,0
30826,99.0018,-3883.79,0,0
32127.6,99.7481,-3723.54,0,0
33429.2,90.4131,-3582.91,0,0
34730.9,85.8252,-3444.83,0,0
36032.5,81.8988,-3317.48,0,0
37334.1,80.0644,-3198.77,0,0
38635.7,77.423,-3086.85,0,0
39937.4,77.096,-2981.33,0,0
41239,79.9778,-2886.65,0,0
42540.6,78.9716,-2798.98,0,0
43842.225,74.1914,-2715.67,0,0
45143.85,71.7232,-2634.46,0,0
46445.475,70.6495,-2557.54,0,0
47747.1,70.4077,-2487.72,0,0
49048.725,66.4642,-2418.55,0,0
50350.35,64.7555,-2351.1,0,0
51651.975,64.1792,-2286.38,0,0
52953.6,65.9574,-2223.64,0,0
54255.225,73.7767,-2167.22,0,0
55556.85,72.094,-2124.07,0,0
56858.475,66.0302,-2070.55,0,0
58160.1,66.8227,-2018.15,0,0
59461.7,70.8988,-1967.57,0,0
60763.3,79.9475,-1929.78,0,0
62065,69.8263,-1896.5,0,0
63366.6,64.5292,-1851.01,0,0
64668.2,64.646,-1807.44,0,0
65969.8,66.5424,-1767.03,0,0
67271.5,70.45,-1731.06,0,0
68573.1,73.9799,-1701.85,0,0
69874.7,66.5118,-1671.98,0,0
71176.3,64.989,-1638.04,0,0
72478,59.424,-1606.73,0,0
73779.6,57.8486,-1570,0,0
75081.2,59.8452,-1537.25,0,0
76382.825,62.3654,-1508.37,0,0
77684.45,65.1362,-1480.71,0,0
78986.075,64.117,-1458.26,0,0
80287.7,61.0552,-1431.47,0,0
81589.325,60.5155,-1405.43,0,0
82890.95,59.2147,-1380.49,0,0
84192.575,58.0049,-1355.65,0,0
85494.2,57.1413,-1331.36,0,0
86795.825,56.4816,-1307.8,0,0
88097.45,55.1413,-1285.25,0,0
89399.075,53.6419,-1261.07,0,0
90700.7,53.5892,-1237.83,0,0
92002.3,53.8508,-1214.77,0,0
93303.9,55.1882,-1194.03,0,0
94605.6,53.7745,-1173.75,0,0
95907.2,53.0546,-1151.36,0,0
97208.8,53.9253,-1129.67,0,0
98510.4,55.1362,-1108.32,0,0
99812.1,57.6392,-1087.68,0,0
101114,61.6643,-1068.99,0,0
102415,61.0087,-1054.43,0,0
103717,57.9666,-1032.05,0,0
105019,61.5419,-1008.46,0,0
106320.175,67.8621,-988.053,0,0
107621.8,74.48,-970.056,0,0
108923.425,82.5599,-952.989,0,0
110225.05,90.5953,-940.004,0,0
111526.675,96.8445,-928.716,0,0
112828.3,102.345,-918.403,0,0
114129.925,106.277,-909.605,0,0
115431.55,108.655,-901.479,0,0
116733.175,108.551,-893.335,0,0
118034.8,106.706,-882.963,0,0
119336.425,107.801,-869.338,0,0
120638.05,112.855,-864.378,0,0
121939.675,106.038,-858.385,0,0
123241,101.051,-846.196,0,0
124543,97.9391,-833.728,0,0
125845,95.7633,-821.399,0,0
127146,92.6217,-810.633,0,0
128448,87.7046,-799.073,0,0
129749,81.0906,-784.531,0,0
131051,76.0805,-766.997,0,0
132353,73.3125,-748.326,0,0
133654,72.3705,-729.332,0,0
134956,72.9301,-710.382,0,0
136258,74.9721,-691.953,0,0
137559,77.7977,-674.547,0,0
138860.775,79.6267,-656.844,0,0
140162.4,82.8572,-637.84,0,0
141464.025,87.8958,-618.861,0,0
142765.65,93.8305,-600.705,0,0
144067.275,100.462,-582.484,0,0
145368.9,108.003,-564.049,0,0
146670.525,117.181,-545.358,0,0
147972.15,127.996,-527.3,0,0
149273.775,140.379,-509.038,0,0
150575.4,155.204,-491.287,0,0
151877.025,173.828,-474.96,0,0
153178.65,195.679,-462.649,0,0
154480,217.262,-457.147,0,0
155782,234.447,-453.296,0,0
157084,250.033,-451.604,0,0
158385,264.602,-446.044,0,0
159687,284.832,-443.151,0,0
160988,302.999,-450.248,0,0
162290,309.675,-457.13,0,0
163592,314.115,-456.152,0,0
164893,323.456,-449.504,0,0
166195,338.536,-443.524,0,0
167497,363.923,-440.789,0,0
168798,392.634,-456.534,0,0
170100,409.832,-484.86,0,0
171401.375,408.308,-523.196,0,0
172703.0,384.211,-549.494,0,0
174004.625,350.767,-556.503,0,0
175306.25,322.784,-545.753,0,0
176607.875,304.3,-524.842,0,0
177909.5,297.012,-501.271,0,0
179211.125,296.34,-480.49,0,0
180512.75,299.509,-461.42,0,0
181814.375,303.692,-444.751,0,0
183116.0,306.869,-428.022,0,0
184417.625,310.863,-407.541,0,0
185719.25,318.493,-384.241,0,0
187021,330.885,-358.896,0,0
188322,348.342,-332.213,0,0
189624,372.545,-304.636,0,0
190926,405.475,-277.796,0,0
192227,447.379,-255.385,0,0
193529,497.25,-240.25,0,0
194831,552.302,-234.059,0,0
196132,611.599,-236.298,0,0
197434,677.867,-247.461,0,0
198735,751.726,-277.046,0,0
200037,823.339,-333.891,0,0
201339,874.722,-415.308,0,0
202640.35,896.649,-506.663,0,0
203941.975,894.362,-591.105,0,0
205243.6,876.29,-668.892,0,0
206545.225,844.845,-735.717,0,0
207846.85,806.268,-798.433,0,0
209148.475,746.259,-846.899,0,0
210450.1,685.495,-867.804,0,0
211751.725,634.657,-873.845,0,0
213053.35,594.946,-870.475,0,0
214354.975,566.521,-863.583,0,0
215656.6,550.117,-863.207,0,0
216958.225,530.192,-870.963,0,0
218259.85,507.253,-875.227,0,0
219561,485.691,-878.692,0,0
220863,463.476,-883.04,0,0
222165,439.859,-885.122,0,0
223466,417.361,-884.658,0,0
224768,395.88,-884.848,0,0
226070,371.714,-886.115,0,0
227371,343.843,-882.33,0,0
228673,316.127,-873.545,0,0
229974,291.441,-857.882,0,0
231276,272.924,-839.834,0,0
232578,258.829,-822.288,0,0
233879,247.879,-805.018,0,0
235180.95,239.592,-788.956,0,0
236482.575,233.278,-774.767,0,0
237784.2,227.699,-760.113,0,0
239085.825,225.786,-746.815,0,0
240387.45,224.814,-736.645,0,0
241689.075,223.226,-728.983,0,0
242990.7,220.356,-722.705,0,0
244292.325,215.649,-716.915,0,0
245593.95,209.082,-709.407,0,0
246895.575,203.388,-699.476,0,0
248197.2,200.572,-688.785,0,0
249498.825,198.421,-680.279,0,0
250800,195.83,-671.982,0,0
252102,192.63,-664.347,0,0
253404,186.802,-655.061,0,0
254705,182.532,-641.389,0,0
256007,180.649,-625.634,0,0
257309,183.587,-607.54,0,0
258610,191.791,-590.046,0,0
259912,205.813,-574.476,0,0
261213,225.038,-564.672,0,0
262515,245.462,-562.489,0,0
263817,266.385,-565.805,0,0
265118,284.428,-576.898,0,0
266420,298.456,-593.727,0,0
267721.55,303.676,-616.029,0,0
269023.175,301.041,-636.737,0,0
270324.8,288.689,-654.97,0,0
271626.425,275.716,-661.862,0,0
272928.05,267.131,-669.807,0,0
274229.675,255.046,-678.647,0,0
275531.3,237.813,-685.89,0,0
276832.925,216.481,-685.548,0,0
278134.55,197.387,-676.308,0,0
279436.175,186.133,-661.077,0,0
280737.8,184.053,-648.508,0,0
282039.425,182.763,-641.484,0,0
283341,181.378,-633.961,0,0
284643,182.141,-630.83,0,0
285944,179.298,-629.413,0,0
287246,172.438,-626.403,0,0
288548,166.083,-617.058,0,0
289849,166.192,-603.262,0,0
291151,175.778,-593.177,0,0
292452,188.16,-592.723,0,0
293754,197.301,-600.439,0,0
295056,198.707,-613.074,0,0
296357,191.142,-623.952,0,0
297659,179.588,-628.322,0,0
298960.525,169.514,-628,0,0
300262.15,161.067,-626.304,0,0
301563.775,152.85,-623.897,0,0
302865.4,145.213,-619.685,0,0
304167.025,138.654,-615.037,0,0
305468.65,132.952,-609.395,0,0
306770.275,128.744,-603.2,0,0
308071.9,126.317,-597.653,0,0
309373.525,124.334,-593.614,0,0
310675.15,121.603,-590.344,0,0
311976.775,118.094,-586.569,0,0
313278.4,115.038,-582.068,0,0
314580,112.904,-577.331,0,0
315882,111.685,-573.222,0,0
317183,110.825,-570.229,0,0
318485,109.539,-568.21,0,0
319787,107.334,-567.212,0,0
321088,103.488,-566.525,0,0
322390,97.3362,-565.051,0,0
323691,90.2029,-560.185,0,0
324993,85.4727,-553.073,0,0
326295,82.5284,-546.515,0,0
327596,79.9024,-539.923,0,0
328898,77.972,-532.976,0,0
330200,77.7661,-525.746,0,0
331501.125,78.9636,-519.913,0,0
332802.75,80.1404,-515.881,0,0
334104.375,80.1332,-512.956,0,0
335406.0,78.9444,-509.777,0,0
336707.625,77.076,-505.754,0,0
338009.25,75.4081,-500.125,0,0
339310.875,75.0988,-493.844,0,0
340612.5,76.2189,-487.499,0,0
341914.125,79.0033,-481.703,0,0
343215.75,83.3744,-477.888,0,0
344517.375,87.2209,-476.856,0,0
345819.0,89.1712,-477.206,0,0
347121,89.2877,-477.562,0,0
348422,88.1942,-477.364,0,0
349724,86.3166,-476.257,0,0
351025,84.2114,-474.165,0,0
352327,82.3351,-471.193,0,0
353629,81.0587,-467.497,0,0
354930,81.145,-463.679,0,0
356232,81.4993,-461.236,0,0
357534,81.0214,-459.203,0,0
358835,79.6117,-456.809,0,0
360137,78.19,-452.979,0,0
361438,77.9828,-448.702,0,0
362740.1,78.5862,-444.672,0,0
364041.725,79.5486,-441.455,0,0
365343.35,79.8281,-438.597,0,0
366644.975,79.7883,-434.72,0,0
367946.6,80.9543,-429.884,0,0
369248.225,83.8653,-425.199,0,0
370549.85,88.368,-421.756,0,0
371851.475,93.7718,-420.448,0,0
373153.1,98.7812,-421.884,0,0
374454.725,101.136,-425.254,0,0
375756.35,100.976,-427.958,0,0
377057.975,100.05,-429.35,0,0
378359.6,99.1488,-430.155,0,0
379661,97.8301,-430.875,0,0
380963,96.4064,-430.944,0,0
382264,95.0182,-430.334,0,0
383566,95.4295,-430.199,0,0
384868,94.452,-433.019,0,0
386169,89.7931,-435.046,0,0
387471,83.9756,-433.927,0,0
388773,79.586,-429.779,0,0
390074,78.4609,-425.321,0,0
391376,79.1693,-423.119,0,0
392677,78.3751,-423.711,0,0
393979,74.4178,-423.885,0,0
395280.7,69.5938,-421.374,0,0
396582.325,65.7822,-417.107,0,0
397883.95,63.2953,-412.325,0,0
399185.575,61.5094,-407.494,0,0
400006.6,60.788,-404.297,0,0