Folder: ML_Dmg_Mehdi_Dataset/Accelerated corrosion test data/2025-09-30_08-18-27

Note: README.md
# ML_Dmg_Mehdi_Dataset

File: sample_1.csv
Frequency (Hz),Impedance (ohms),Phase (Radians),Temperature (C),Humidity (%)
10000.0,239.072,-12226.7,0,0
11301.625,212.653,-10829.9,0,0
12603.25,193.86,-9728.51,0,0
13904.875,180.835,-8801.64,0,0
15206.5,178.762,-8072.37,0,0
16508.125,154.975,-7441.84,0,0
17809.75,148.973,-6906.94,0,0
19111.375,135.194,-6435.83,0,0
20413.0,154.063,-5993.72,0,0
21714.625,138.01,-5679.63,0,0
23016.25,122.589,-5370.72,0,0
24317.875,112.271,-5078.35,0,0
25619.5,104.35,-4813.39,0,0
26921.1,112.911,-4565.72,0,0
28222.7,109.941,-4361.06,0,0
29524.4,107.291,-4193.17,0,0
30826,100.48,-4007.03,0,0
32127.6,98.2387,-3847.32,0,0
33429.2,88.583,-3704.08,0,0
34730.9,81.6944,-3561.85,0,0
36032.5,77.5372,-3430.29,0,0
37334.1,75.2305,-3307.55,0,0
38635.7,72.7211,-3193.86,0,0
39937.4,70.9727,-3087.11,0,0
41239,71.9819,-2987.88,0,0
42540.6,70.8675,-2895.81,0,0
43842.225,67.6402,-2808.47,0,0
45143.85,68.2108,-2726.85,0,0
46445.475,65.3744,-2650.49,0,0
47747.1,63.7836,-2576.78,0,0
49048.725,61.589,-2506.45,0,0
50350.35,59.7891,-2439.53,0,0
51651.975,58.7267,-2376.01,0,0
52953.6,57.6312,-2314.87,0,0
54255.225,56.8203,-2257.71,0,0
55556.85,55.9296,-2202.21,0,0
56858.475,54.7929,-2149.26,0,0
58160.1,54.5236,-2098.58,0,0
59461.7,54.633,-2050.53,0,0
60763.3,54.541,-2004.32,0,0
62065,53.1841,-1960.47,0,0
63366.6,52.5504,-1916.58,0,0
64668.2,53.1003,-1874.52,0,0
65969.8,55.4211,-1836.56,0,0
67271.5,53.8004,-1799.81,0,0
68573.1,53.5065,-1764.35,0,0
69874.7,52.3106,-1730.41,0,0
71176.3,50.6292,-1695.47,0,0
72478,48.9223,-1662.06,0,0
73779.6,48.3286,-1628.47,0,0
75081.2,48.636,-1596.35,0,0
76382.825,49.6641,-1565.12,0,0
77684.45,50.2792,-1535.47,0,0
78986.075,52.115,-1507.84,0,0
80287.7,51.2096,-1481.49,0,0
81589.325,51.1507,-1453.76,0,0
82890.95,51.4155,-1426.63,0,0
84192.575,53.2108,-1400.39,0,0
85494.2,55.1443,-1376.02,0,0
86795.825,56.2634,-1352.46,0,0
88097.45,56.7808,-1329.36,0,0
89399.075,57.8157,-1304.66,0,0
90700.7,61.7089,-1281.25,0,0
92002.3,68.3395,-1259.93,0,0
93303.9,75.75,-1242.88,0,0
94605.6,74.7161,-1235.54,0,0
95907.2,67.6963,-1217.53,0,0
97208.8,64.7242,-1196.77,0,0
98510.4,64.3084,-1176.59,0,0
99812.1,63.6153,-1155.91,0,0
101114,64.0524,-1136.59,0,0
102415,63.5138,-1114.69,0,0
103717,68.0792,-1093.42,0,0
105019,75.0204,-1075.4,0,0
106320.175,81.5941,-1059.42,0,0
107621.8,88.2173,-1047.14,0,0
108923.425,93.1394,-1036.35,0,0
110225.05,94.4854,-1027.38,0,0
111526.675,95.3248,-1015.59,0,0
112828.3,97.2633,-1006.29,0,0
114129.925,96.2727,-998.535,0,0
115431.55,92.0702,-989.157,0,0
116733.175,86.808,-976.423,0,0
118034.8,82.9005,-961.448,0,0
119336.425,81.6916,-945.589,0,0
120638.05,82.2445,-931.527,0,0
121939.675,81.2617,-919.079,0,0
123241,79.6327,-904.603,0,0
124543,79.5107,-889.514,0,0
125845,80.2646,-874.875,0,0
127146,81.1934,-860.671,0,0
128448,83.2603,-845.391,0,0
129749,86.4906,-831.287,0,0
131051,91.5004,-818.185,0,0
132353,95.7547,-807.641,0,0
133654,98.9857,-797.509,0,0
134956,101.093,-787.36,0,0
136258,104.283,-776.231,0,0
137559,108.723,-766.597,0,0
138860.775,111.159,-760.691,0,0
140162.4,110.654,-752.326,0,0
141464.025,110.261,-741.605,0,0
142765.65,111.558,-731.025,0,0
144067.275,112.151,-720.331,0,0
145368.9,114.044,-708.525,0,0
146670.525,117.301,-697.492,0,0
147972.15,120.506,-688.328,0,0
149273.775,122.152,-678.918,0,0
150575.4,123.356,-669.537,0,0
151877.025,122.782,-658.284,0,0
153178.65,123.59,-643.784,0,0
154480,126.147,-627.818,0,0
155782,134.34,-610.151,0,0
157084,146.202,-595.857,0,0
158385,158.608,-586.451,0,0
159687,169.962,-575.068,0,0
160988,187.018,-566.116,0,0
162290,203.262,-564.531,0,0
163592,218.02,-564.702,0,0
164893,230.075,-568.228,0,0
166195,243.075,-576.008,0,0
167497,247.15,-588.422,0,0
168798,244.92,-597.915,0,0
170100,236.79,-603.245,0,0
171401.375,231.173,-601.388,0,0
172703.0,224.353,-599.251,0,0
174004.625,219.945,-592.396,0,0
175306.25,220.667,-585.779,0,0
176607.875,220.023,-583.366,0,0
177909.5,217.783,-580.106,0,0
179211.125,215.813,-577.093,0,0
180512.75,210.203,-574.667,0,0
181814.375,202.459,-568.018,0,0
183116.0,194.045,-557.351,0,0
184417.625,189.377,-542.321,0,0
185719.25,188.35,-526.884,0,0
187021,189.554,-511.471,0,0
188322,191.983,-496.632,0,0
189624,195.354,-480.336,0,0
190926,201.532,-464.619,0,0
192227,208.688,-449.17,0,0
193529,216.111,-433.06,0,0
194831,226.051,-415.897,0,0
196132,239.311,-397.508,0,0
197434,256.522,-379.01,0,0
198735,276.968,-364.358,0,0
200037,298.153,-349.199,0,0
201339,324.93,-331.852,0,0
202640.35,360.77,-318.881,0,0
203941.975,403.375,-312.722,0,0
205243.6,454.84,-320.231,0,0
206545.225,500.071,-348.953,0,0
207846.85,529.576,-388.756,0,0
209148.475,542.256,-429.304,0,0
210450.1,539.657,-463.018,0,0
211751.725,530.484,-481.348,0,0
213053.35,531.629,-486.127,0,0
214354.975,542.477,-495.141,0,0
215656.6,554.646,-511.544,0,0
216958.225,560.606,-526.711,0,0
218259.85,574.206,-540.014,0,0
219561,590.549,-557.959,0,0
220863,609.651,-584.682,0,0
222165,625.725,-622.105,0,0
223466,632.887,-669.351,0,0
224768,624.925,-721.25,0,0
226070,603.828,-771.429,0,0
227371,568.063,-813.569,0,0
228673,525.308,-842.943,0,0
229974,479.974,-860.893,0,0
231276,435.16,-865.352,0,0
232578,399.439,-860.843,0,0
233879,370.378,-855.746,0,0
235180.95,344.616,-850.305,0,0
236482.575,319.977,-843.652,0,0
237784.2,299.114,-835.793,0,0
239085.825,277.974,-829.141,0,0
240387.45,256.932,-818.95,0,0
241689.075,239.078,-806.5,0,0
242990.7,224.448,-793.512,0,0
244292.325,212.386,-781.845,0,0
245593.95,200.417,-770.933,0,0
246895.575,188.988,-759.07,0,0
248197.2,179.164,-746.491,0,0
249498.825,170.815,-734.224,0,0
250800,163.584,-721.981,0,0
252102,157.111,-709.948,0,0
253404,151.369,-697.517,0,0
254705,147.032,-684.328,0,0
256007,144.897,-671.686,0,0
257309,143.774,-659.58,0,0
258610,144.259,-647.984,0,0
259912,146.019,-637.032,0,0
261213,149.876,-627.537,0,0
262515,154.499,-620.354,0,0
263817,159.684,-614.534,0,0
265118,166.295,-611.296,0,0
266420,172.217,-612.597,0,0
267721.55,174.637,-618.141,0,0
269023.175,169.649,-624.643,0,0
270324.8,159.239,-625.341,0,0
271626.425,150.077,-619.892,0,0
272928.05,144.483,-611.489,0,0
274229.675,142.003,-603.248,0,0
275531.3,141.234,-595.483,0,0
276832.925,141.868,-588.84,0,0
278134.55,143.979,-583.374,0,0
279436.175,146.597,-580.057,0,0
280737.8,148.128,-579.505,0,0
282039.425,146.752,-579.261,0,0
283341,144.092,-577.952,0,0
284643,140.956,-575.484,0,0
285944,136.646,-572.135,0,0
287246,132.526,-566.507,0,0
288548,130.03,-558.48,0,0
289849,132.068,-550.292,0,0
291151,134.761,-546.414,0,0
292452,135.28,-543.018,0,0
293754,135.475,-538.718,0,0
295056,135.528,-533.301,0,0
296357,138.07,-526.379,0,0
297659,143.181,-521.535,0,0
298960.525,148.447,-518.305,0,0
300262.15,154.246,-516.408,0,0
301563.775,160.033,-516.212,0,0
302865.4,165.741,-517.512,0,0
304167.025,170.767,-520.477,0,0
305468.65,174.353,-525.24,0,0
306770.275,176.491,-530.098,0,0
308071.9,177.758,-536.048,0,0
309373.525,176.757,-542.668,0,0
310675.15,174.127,-548.837,0,0
311976.775,170.215,-554.532,0,0
313278.4,164.339,-559.885,0,0
314580,157.109,-563.474,0,0
315882,149.352,-565.555,0,0
317183,140.783,-566.321,0,0
318485,132.677,-564.791,0,0
319787,125.386,-562.44,0,0
321088,118.194,-559.325,0,0
322390,111.513,-554.684,0,0
323691,106.47,-548.809,0,0
324993,103.438,-542.763,0,0
326295,101.788,-538.013,0,0
327596,100.681,-534.087,0,0
328898,99.4481,-531.272,0,0
330200,98.1033,-529.163,0,0
331501.125,96.1471,-527.55,0,0
332802.75,93.296,-526.02,0,0
334104.375,89.8767,-524.108,0,0
335406.0,86.1556,-521.683,0,0
336707.625,82.4573,-518.404,0,0
338009.25,79.1073,-514.924,0,0
339310.875,75.8092,-510.986,0,0
340612.5,73.0122,-506.754,0,0
341914.125,70.6504,-502.534,0,0
343215.75,68.5442,-498.392,0,0
344517.375,66.4917,-494.32,0,0
345819.0,64.4228,-490.079,0,0
347121,62.5712,-485.561,0,0
348422,61.0486,-480.971,0,0
349724,59.887,-476.264,0,0
351025,59.2082,-471.65,0,0
352327,58.7551,-467.352,0,0
353629,58.3081,-463.312,0,0
354930,57.9506,-459.052,0,0
356232,57.874,-454.913,0,0
357534,58.1184,-451.027,0,0
358835,58.3156,-447.457,0,0
360137,58.459,-443.868,0,0
361438,58.7221,-440.239,0,0
362740.1,59.0819,-436.935,0,0
364041.725,59.2547,-433.597,0,0
365343.35,59.464,-430.065,0,0
366644.975,59.8426,-426.38,0,0
367946.6,60.3577,-422.621,0,0
369248.225,61.2118,-418.325,0,0
370549.85,63.2942,-413.956,0,0
371851.475,66.2451,-410.518,0,0
373153.1,69.4477,-408.079,0,0
374454.725,72.715,-406.634,0,0
375756.35,75.302,-406.13,0,0
377057.975,77.2807,-405.693,0,0
378359.6,79.1814,-405.533,0,0
379661,80.7148,-405.726,0,0
380963,82.095,-406.105,0,0
382264,83.4377,-407.252,0,0
383566,83.4552,-409.432,0,0
384868,81.8432,-411.349,0,0
386169,79.2009,-412.073,0,0
387471,76.2825,-411.743,0,0
388773,73.4615,-410.338,0,0
390074,71.4831,-408.129,0,0
391376,70.2688,-406.363,0,0
392677,68.7731,-405.126,0,0
393979,66.4133,-403.728,0,0
395280.7,63.8912,-401.313,0,0
396582.325,61.8035,-398.266,0,0
397883.95,60.2146,-394.866,0,0
399185.575,59.0069,-391.343,0,0
400006.6,58.4183,-389.017,0,0

File: sample_2.csv
Frequency (Hz),Impedance (ohms),Phase (Radians),Temperature (C),Humidity (%)
10000.0,226.694,-11384.2,0,0
11301.625,201.632,-10082.5,0,0
12603.25,181.752,-9051.58,0,0
13904.875,183.644,-8212.99,0,0
15206.5,162.163,-7521.67,0,0
16508.125,142.225,-6929.33,0,0
17809.75,131.891,-6423.38,0,0
19111.375,128.077,-5986.22,0,0
20413.0,117.537,-5604.62,0,0
21714.625,127.188,-5274.92,0,0
23016.25,111.622,-4981.37,0,0
24317.875,102.507,-4716.65,0,0
25619.5,96.6792,-4474.31,0,0
26921.1,93.8881,-4256.41,0,0
28222.7,90.009,-4058.25,0,0
29524.4,93.4013,-3875.09,0,0
30826,88.0473,-3721.18,0,0
32127.6,81.6927,-3568.49,0,0
33429.2,79.7969,-3429.8,0,0
34730.9,75.3714,-3300.03,0,0
36032.5,72.9844,-3179.13,0,0
37334.1,70.9064,-3066.21,0,0
38635.7,68.9239,-2961.49,0,0
39937.4,66.9394,-2862.88,0,0
41239,65.2887,-2770.58,0,0
42540.6,64.2827,-2684.19,0,0
43842.225,62.894,-2602.61,0,0
45143.85,61.6653,-2525.44,0,0
46445.475,61.1335,-2453.4,0,0
47747.1,60.7002,-2384.34,0,0
49048.725,60.4731,-2320.36,0,0
50350.35,57.8211,-2258.47,0,0
51651.975,56.7891,-2199.66,0,0
52953.6,55.072,-2142.68,0,0
54255.225,54.2704,-2088.15,0,0
55556.85,53.899,-2036.36,0,0
56858.475,53.7143,-1986.86,0,0
58160.1,54.1908,-1939.75,0,0
59461.7,54.5511,-1894.03,0,0
60763.3,55.9977,-1851.62,0,0
62065,58.9975,-1813.48,0,0
63366.6,56.1684,-1776.87,0,0
64668.2,52.9757,-1739.07,0,0
65969.8,50.6251,-1700.08,0,0
67271.5,51.1127,-1662.82,0,0
68573.1,53.5258,-1628.86,0,0
69874.7,55.9492,-1598.59,0,0
71176.3,52.9766,-1570.48,0,0
72478,47.7238,-1540.29,0,0
73779.6,45.3386,-1507.47,0,0
75081.2,45.2377,-1475.46,0,0
76382.825,46.9784,-1445.19,0,0
77684.45,49.5571,-1417.04,0,0
78986.075,53.0849,-1392.67,0,0
80287.7,51.9619,-1371.43,0,0
81589.325,49.3223,-1346.53,0,0
82890.95,48.1016,-1321.01,0,0
84192.575,48.8217,-1296.19,0,0
85494.2,49.6026,-1272.82,0,0
86795.825,50.3721,-1250.86,0,0
88097.45,50.9206,-1229.73,0,0
89399.075,50.891,-1208.18,0,0
90700.7,51.587,-1187.95,0,0
92002.3,52.8993,-1166.84,0,0
93303.9,55.9129,-1148.34,0,0
94605.6,55.2439,-1132.01,0,0
95907.2,54.6083,-1112.19,0,0
97208.8,57.4601,-1095.49,0,0
98510.4,57.8308,-1081.55,0,0
99812.1,53.3275,-1067.57,0,0
101114,50.0565,-1049.32,0,0
102415,47.5238,-1029.34,0,0
103717,46.2551,-1008.6,0,0
105019,49.4551,-988.423,0,0
106320.175,54.4211,-971.454,0,0
107621.8,57.6171,-959.395,0,0
108923.425,56.1943,-947.613,0,0
110225.05,52.918,-932.409,0,0
111526.675,51.7324,-914.829,0,0
112828.3,51.9756,-897.544,0,0
114129.925,53.6435,-880.217,0,0
115431.55,56.1282,-864.026,0,0
116733.175,59.2954,-848.481,0,0
118034.8,63.0329,-834.225,0,0
119336.425,67.0421,-821.592,0,0
120638.05,69.8164,-811.478,0,0
121939.675,69.1186,-800.089,0,0
123241,68.8212,-787.163,0,0
124543,68.654,-773.935,0,0
125845,68.5457,-759.58,0,0
127146,69.812,-744.317,0,0
128448,72.7646,-729.638,0,0
129749,76.0545,-716.445,0,0
131051,79.0209,-704.312,0,0
132353,80.8342,-692.467,0,0
133654,81.6713,-679.665,0,0
134956,82.9323,-665.837,0,0
136258,84.6514,-651.596,0,0
137559,87.2359,-636.768,0,0
138860.775,89.641,-621.778,0,0
140162.4,92.4794,-605.243,0,0
141464.025,97.5992,-586.992,0,0
142765.65,106.348,-569.26,0,0
144067.275,115.931,-553.584,0,0
145368.9,127.009,-537.898,0,0
146670.525,138.976,-523.272,0,0
147972.15,153.914,-507.86,0,0
149273.775,173.914,-493.196,0,0
150575.4,201.584,-487.786,0,0
151877.025,226.007,-495.978,0,0
153178.65,237.906,-511.024,0,0
154480,238.539,-522.374,0,0
155782,236.166,-527.158,0,0
157084,232.24,-528.693,0,0
158385,228.536,-525.909,0,0
159687,224.87,-519.569,0,0
160988,226.791,-511.791,0,0
162290,235.43,-507.987,0,0
163592,233.774,-517.39,0,0
164893,219.133,-517.209,0,0
166195,203.056,-504.351,0,0
167497,195.777,-485.163,0,0
168798,191.369,-463.384,0,0
170100,194.001,-441.022,0,0
171401.375,197.172,-419.258,0,0
172703.0,205,-395.409,0,0
174004.625,217.228,-371.426,0,0
175306.25,235.397,-347.665,0,0
176607.875,258.453,-329.882,0,0
177909.5,286.846,-319.274,0,0
179211.125,306.842,-316.019,0,0
180512.75,319.271,-316.97,0,0
181814.375,323.298,-303.277,0,0
183116.0,338.046,-280.591,0,0
184417.625,361.212,-257.146,0,0
185719.25,396.496,-235.122,0,0
187021,437.672,-226.815,0,0
188322,477.982,-219.997,0,0
189624,517.749,-216.373,0,0
190926,562.679,-211.794,0,0
192227,622.285,-214.177,0,0
193529,691.08,-232.566,0,0
194831,754.671,-276.297,0,0
196132,807.035,-332.458,0,0
197434,848.568,-398.584,0,0
198735,875.703,-473.181,0,0
200037,885.745,-557.078,0,0
201339,879.114,-642.028,0,0
202640.35,844.323,-724.939,0,0
203941.975,789.891,-781.733,0,0
205243.6,740.81,-819.493,0,0
206545.225,687.34,-849.47,0,0
207846.85,639.014,-863.838,0,0
209148.475,600.266,-872.285,0,0
210450.1,560.792,-885.761,0,0
211751.725,513.977,-890.457,0,0
213053.35,473.594,-880.408,0,0
214354.975,442.04,-866.606,0,0
215656.6,417.284,-852.743,0,0
216958.225,396.671,-837.519,0,0
218259.85,381.886,-822.277,0,0
219561,371.697,-808.55,0,0
220863,363.841,-798.358,0,0
222165,358.376,-787.723,0,0
223466,357.375,-781.52,0,0
224768,354.403,-780.125,0,0
226070,350.145,-778.644,0,0
227371,348.051,-779.504,0,0
228673,344.978,-783.876,0,0
229974,338.32,-792.276,0,0
231276,325.782,-800.377,0,0
232578,309.446,-804.812,0,0
233879,292.441,-806.112,0,0
235180.95,275.974,-805.194,0,0
236482.575,258.475,-802.218,0,0
237784.2,241.542,-796.875,0,0
239085.825,226.078,-788.961,0,0
240387.45,212.073,-779.613,0,0
241689.075,200.401,-768.909,0,0
242990.7,191.399,-758.518,0,0
244292.325,184.365,-750.125,0,0
245593.95,175.921,-744.011,0,0
246895.575,164.698,-738.404,0,0
248197.2,151.097,-728.326,0,0
249498.825,139.187,-714.868,0,0
250800,130.34,-699.022,0,0
252102,124.691,-682.475,0,0
253404,121.867,-666.132,0,0
254705,120.918,-650.632,0,0
256007,122.14,-635.201,0,0
257309,125.814,-620.944,0,0
258610,131.698,-608.61,0,0
259912,138.406,-598.216,0,0
261213,146.763,-589.784,0,0
262515,155.731,-584.377,0,0
263817,164.155,-581.499,0,0
265118,171.491,-582.131,0,0
266420,174.994,-583.544,0,0
267721.55,177.699,-583.897,0,0
269023.175,178.501,-585.151,0,0
270324.8,176.875,-582.797,0,0
271626.425,179.248,-577.155,0,0
272928.05,185.5,-572.958,0,0
274229.675,195.995,-570.898,0,0
275531.3,209.794,-578.085,0,0
276832.925,216.346,-595.031,0,0
278134.55,210.918,-612.023,0,0
279436.175,200.095,-622.705,0,0
280737.8,188.371,-629.34,0,0
282039.425,174.96,-633.528,0,0
283341,159.315,-633.378,0,0
284643,147.326,-627.188,0,0
285944,135.772,-622.967,0,0
287246,122.756,-613.316,0,0
288548,113.855,-596.848,0,0
289849,115.263,-577.271,0,0
291151,127.976,-564.379,0,0
292452,141.333,-564.162,0,0
293754,148.028,-571.721,0,0
295056,144.942,-576.314,0,0
296357,148.195,-576.583,0,0
297659,147.87,-587.373,0,0
298960.525,137.84,-593.162,0,0
300262.15,128.7,-593.534,0,0
301563.775,120.415,-591.227,0,0
302865.4,115.537,-587.621,0,0
304167.025,111.545,-587.269,0,0
305468.65,104.466,-587.461,0,0
306770.275,95.5103,-584.858,0,0
308071.9,87.6587,-579.591,0,0
309373.525,81.3535,-573.617,0,0
310675.15,75.9711,-567.206,0,0
311976.775,71.5846,-560.323,0,0
313278.4,68.4308,-553.651,0,0
314580,65.5944,-547.519,0,0
315882,63.1142,-541.315,0,0
317183,61.0739,-534.884,0,0
318485,59.8676,-528.673,0,0
319787,58.9633,-523.115,0,0
321088,57.929,-517.723,0,0
322390,57.0879,-512.284,0,0
323691,56.0885,-506.609,0,0
324993,55.9914,-499.957,0,0
326295,58.0903,-493.595,0,0
327596,61.3011,-489.684,0,0
328898,63.3604,-487.297,0,0
330200,65.0034,-485.451,0,0
331501.125,65.7791,-484.62,0,0
332802.75,65.2803,-484.162,0,0
334104.375,63.1393,-482.975,0,0
335406.0,60.7235,-480.428,0,0
336707.625,58.677,-477.193,0,0
338009.25,56.9099,-473.28,0,0
339310.875,55.7147,-469.067,0,0
340612.5,54.958,-464.985,0,0
341914.125,54.3691,-460.701,0,0
343215.75,54.1736,-456.365,0,0
344517.375,54.4784,-451.999,0,0
345819.0,55.2786,-447.871,0,0
347121,56.4564,-444.011,0,0
348422,57.8446,-440.509,0,0
349724,59.5285,-437.424,0,0
351025,61.4115,-435.017,0,0
352327,62.7532,-433.178,0,0
353629,63.7871,-431.138,0,0
354930,65.0009,-429.105,0,0
356232,66.2102,-427.401,0,0
357534,67.5376,-425.751,0,0
358835,69.1638,-424.495,0,0
360137,70.8253,-424.164,0,0
361438,71.5239,-424.54,0,0
362740.1,71.2592,-424.727,0,0
364041.725,70.6729,-424.64,0,0
365343.35,69.5487,-424.129,0,0
366644.975,68.3832,-423.138,0,0
367946.6,67.7225,-421.617,0,0
369248.225,67.5582,-420.586,0,0
370549.85,66.8761,-420.154,0,0
371851.475,65.6049,-419.32,0,0
373153.1,64.4734,-418.323,0,0
374454.725,63.1921,-417.489,0,0
375756.35,61.4528,-416.402,0,0
377057.975,59.8462,-414.796,0,0
378359.6,58.5238,-413.694,0,0
379661,55.6786,-412.483,0,0
380963,53.2034,-408.842,0,0
382264,53.0817,-406.09,0,0
383566,51.9488,-404.61,0,0
384868,49.9932,-402.536,0,0
386169,48.1554,-399.794,0,0
387471,46.6224,-396.726,0,0
388773,45.372,-393.189,0,0
390074,45.0413,-389.53,0,0
391376,45.4463,-386.778,0,0
392677,45.0153,-385.12,0,0
393979,43.3137,-382.826,0,0
395280.7,41.7449,-379.301,0,0
396582.325,41.075,-375.291,0,0
397883.95,41.1138,-371.31,0,0
399185.575,41.588,-367.641,0,0
400006.6,42.0673,-365.549,0,0