Folder: ML_Dmg_Mehdi_Dataset/Accelerated corrosion test data/2025-10-21_06-00-04

Note: README.md
# ML_Dmg_Mehdi_Dataset

File: sample_1.csv
Frequency (Hz),Impedance (ohms),Phase (Radians),Temperature (C),Humidity (%)
10000.0,239.847,-12236.1,0,0
11301.625,213.044,-10837.9,0,0
12603.25,194.247,-9734.18,0,0
13904.875,181.105,-8807.61,0,0
15206.5,189.955,-8074.59,0,0
16508.125,153.958,-7448.73,0,0
17809.75,145.678,-6909.8,0,0
19111.375,134.927,-6440.76,0,0
20413.0,156.417,-5994.88,0,0
21714.625,135.789,-5678.82,0,0
23016.25,121.744,-5376.68,0,0
24317.875,112.435,-5083.11,0,0
25619.5,104.15,-4817.41,0,0
26921.1,113.816,-4566.41,0,0
28222.7,110.163,-4363.68,0,0
29524.4,107.712,-4198.9,0,0
30826,100.537,-4009.49,0,0
32127.6,97.2787,-3852.86,0,0
33429.2,88.8222,-3707.51,0,0
34730.9,81.8173,-3565.53,0,0
36032.5,77.5164,-3434.08,0,0
37334.1,74.8115,-3311.4,0,0
38635.7,72.4981,-3197.63,0,0
39937.4,70.5016,-3090.51,0,0
41239,72.1944,-2991.39,0,0
42540.6,70.3704,-2898.58,0,0
43842.225,67.196,-2812.16,0,0
45143.85,67.9257,-2730.37,0,0
46445.475,64.7219,-2653.27,0,0
47747.1,63.804,-2579.75,0,0
49048.725,61.0603,-2509.38,0,0
50350.35,59.3344,-2442.67,0,0
51651.975,58.3652,-2379.08,0,0
52953.6,57.3689,-2317.95,0,0
54255.225,56.4237,-2260.91,0,0
55556.85,55.3777,-2205.13,0,0
56858.475,54.4736,-2151.83,0,0
58160.1,54.1714,-2101.19,0,0
59461.7,53.9151,-2053.21,0,0
60763.3,54.0935,-2007.14,0,0
62065,52.6831,-1963.07,0,0
63366.6,52.176,-1919.38,0,0
64668.2,52.62,-1877.05,0,0
65969.8,54.7245,-1839.34,0,0
67271.5,53.2271,-1802.9,0,0
68573.1,52.7424,-1766.98,0,0
69874.7,51.8418,-1732.71,0,0
71176.3,49.8639,-1698.28,0,0
72478,48.0861,-1664.47,0,0
73779.6,47.731,-1631,0,0
75081.2,48.0771,-1598.63,0,0
76382.825,48.7618,-1567.63,0,0
77684.45,49.9195,-1538.17,0,0
78986.075,51.4664,-1510.49,0,0
80287.7,50.632,-1484.09,0,0
81589.325,50.0452,-1456.2,0,0
82890.95,50.6462,-1429.27,0,0
84192.575,51.9976,-1403.06,0,0
85494.2,54.2072,-1378.08,0,0
86795.825,55.1939,-1354.99,0,0
88097.45,55.6152,-1331.51,0,0
89399.075,57.4298,-1306.92,0,0
90700.7,60.6414,-1283.57,0,0
92002.3,66.6432,-1262.17,0,0
93303.9,74.3649,-1244.81,0,0
94605.6,73.373,-1237.85,0,0
95907.2,66.9569,-1219.11,0,0
97208.8,65.0472,-1198.74,0,0
98510.4,64.3007,-1178.36,0,0
99812.1,63.3126,-1159.04,0,0
101114,62.8596,-1138.79,0,0
102415,63.2872,-1116.99,0,0
103717,67.8749,-1095.93,0,0
105019,74.5683,-1078.68,0,0
106320.175,80.2024,-1062.25,0,0
107621.8,86.5442,-1048.95,0,0
108923.425,90.8623,-1037.65,0,0
110225.05,93.7987,-1028.76,0,0
111526.675,94.1098,-1016.09,0,0
112828.3,97.5834,-1006.49,0,0
114129.925,96.8991,-999.328,0,0
115431.55,93.8476,-990.635,0,0
116733.175,89.1219,-979.438,0,0
118034.8,84.0368,-965.734,0,0
119336.425,81.7754,-950.191,0,0
120638.05,81.8812,-935.755,0,0
121939.675,80.0477,-923.019,0,0
123241,78.6813,-908.058,0,0
124543,78.6168,-893.126,0,0
125845,79.1187,-878.389,0,0
127146,80.043,-863.842,0,0
128448,82.033,-848.92,0,0
129749,84.6422,-834.747,0,0
131051,89.1843,-821.401,0,0
132353,93.535,-810.274,0,0
133654,96.7487,-799.434,0,0
134956,100.269,-788.554,0,0
136258,103.489,-778.17,0,0
137559,108.757,-768.585,0,0
138860.775,111.555,-762.882,0,0
140162.4,110.982,-755.46,0,0
141464.025,110.089,-745.54,0,0
142765.65,110.212,-734.478,0,0
144067.275,111.895,-722.806,0,0
145368.9,114.196,-711.695,0,0
146670.525,117.53,-701.645,0,0
147972.15,119.773,-693.089,0,0
149273.775,121.202,-682.88,0,0
150575.4,122.862,-674.602,0,0
151877.025,121.381,-663.945,0,0
153178.65,120.802,-649.012,0,0
154480,124.172,-632.717,0,0
155782,130.631,-615.758,0,0
157084,142.324,-600.404,0,0
158385,154.526,-590.925,0,0
159687,162.968,-579.402,0,0
160988,180.966,-567.273,0,0
162290,199.757,-566.12,0,0
163592,210.822,-567.129,0,0
164893,224.593,-566.222,0,0
166195,239.166,-571.882,0,0
167497,247.967,-582.354,0,0
168798,249.122,-595.686,0,0
170100,241.419,-604.8,0,0
171401.375,232.657,-603.702,0,0
172703.0,229.43,-599.264,0,0
174004.625,226.704,-596.698,0,0
175306.25,225.116,-593.705,0,0
176607.875,222.906,-592.399,0,0
177909.5,219.957,-588.83,0,0
179211.125,215.321,-587.473,0,0
180512.75,207.416,-583.566,0,0
181814.375,199.91,-575.258,0,0
183116.0,193.282,-563.876,0,0
184417.625,188.625,-550.89,0,0
185719.25,186.467,-535.917,0,0
187021,186.336,-520.625,0,0
188322,189.739,-504.777,0,0
189624,193.259,-491.208,0,0
190926,196.336,-476.092,0,0
192227,201.426,-458.775,0,0
193529,210.22,-441.03,0,0
194831,221.392,-424.606,0,0
196132,234.574,-407.867,0,0
197434,250.429,-392.768,0,0
198735,267.029,-378.547,0,0
200037,285.23,-362.308,0,0
201339,308.905,-345.797,0,0
202640.35,340.094,-328.244,0,0
203941.975,382.633,-317.394,0,0
205243.6,433.485,-321.878,0,0
206545.225,480.072,-345.189,0,0
207846.85,512.752,-380.206,0,0
209148.475,533.573,-419.942,0,0
210450.1,534.993,-462.318,0,0
211751.725,521.348,-483.682,0,0
213053.35,518.28,-485.729,0,0
214354.975,532.725,-493.535,0,0
215656.6,542.791,-509.553,0,0
216958.225,552.242,-526.392,0,0
218259.85,560.705,-542.273,0,0
219561,573.777,-557.081,0,0
220863,592.2,-580.209,0,0
222165,609.233,-614.355,0,0
223466,616.379,-659.61,0,0
224768,609.627,-707.335,0,0
226070,592.062,-752.81,0,0
227371,562.894,-794.107,0,0
228673,524.672,-827.295,0,0
229974,479.793,-847.424,0,0
231276,436.848,-853.838,0,0
232578,400.019,-851.319,0,0
233879,372.271,-844.476,0,0
235180.95,350.051,-841.057,0,0
236482.575,325.921,-838.117,0,0
237784.2,302.478,-833.393,0,0
239085.825,279.075,-825.095,0,0
240387.45,259.302,-814.357,0,0
241689.075,242.083,-803.221,0,0
242990.7,226.915,-791.05,0,0
244292.325,214.995,-779.459,0,0
245593.95,203.083,-769.76,0,0
246895.575,190.753,-758.766,0,0
248197.2,180.168,-746.348,0,0
249498.825,171.252,-733.752,0,0
250800,164.116,-721.151,0,0
252102,157.952,-709.409,0,0
253404,151.991,-697.323,0,0
254705,148.007,-684.402,0,0
256007,145.721,-672.726,0,0
257309,143.69,-661.313,0,0
258610,142.711,-649.56,0,0
259912,144.193,-637.725,0,0
261213,147.968,-628.052,0,0
262515,152.39,-620.563,0,0
263817,157.276,-614.595,0,0
265118,163.247,-610.397,0,0
266420,169.954,-609.948,0,0
267721.55,174.521,-615.122,0,0
269023.175,171.628,-622.929,0,0
270324.8,161.958,-626.567,0,0
271626.425,150.759,-623.344,0,0
272928.05,142.896,-615.074,0,0
274229.675,139.12,-606.206,0,0
275531.3,137.686,-597.91,0,0
276832.925,138.162,-590.626,0,0
278134.55,139.773,-585.498,0,0
279436.175,140.313,-582.324,0,0
280737.8,139.869,-578.614,0,0
282039.425,140.236,-575.715,0,0
283341,138.486,-573.104,0,0
284643,137.401,-569.676,0,0
285944,135.702,-566.905,0,0
287246,132.132,-562.467,0,0
288548,130.249,-555.058,0,0
289849,132.502,-547.671,0,0
291151,135.709,-544.641,0,0
292452,136.245,-542.492,0,0
293754,135.346,-538.955,0,0
295056,135.135,-533.664,0,0
296357,136.889,-527.529,0,0
297659,140.359,-522.062,0,0
298960.525,145.338,-517.917,0,0
300262.15,151.008,-515.371,0,0
301563.775,156.973,-514.323,0,0
302865.4,163.21,-515.467,0,0
304167.025,167.773,-518.207,0,0
305468.65,171.74,-521.527,0,0
306770.275,175.685,-525.989,0,0
308071.9,177.482,-533.238,0,0
309373.525,176.333,-539.867,0,0
310675.15,174.174,-545.93,0,0
311976.775,170.05,-552.201,0,0
313278.4,163.891,-556.531,0,0
314580,158.017,-559.222,0,0
315882,152.087,-562.272,0,0
317183,144.436,-564.398,0,0
318485,136.119,-564.721,0,0
319787,127.702,-563.276,0,0
321088,119.705,-560.259,0,0
322390,112.43,-555.498,0,0
323691,107.412,-549.256,0,0
324993,104.622,-543.458,0,0
326295,102.991,-538.752,0,0
327596,101.988,-535.432,0,0
328898,100.523,-533.178,0,0
330200,98.4375,-531.58,0,0
331501.125,95.5522,-529.934,0,0
332802.75,92.3048,-528.121,0,0
334104.375,88.5042,-525.963,0,0
335406.0,84.3965,-522.887,0,0
336707.625,80.7364,-519.23,0,0
338009.25,77.4823,-515.19,0,0
339310.875,74.7112,-511.051,0,0
340612.5,72.3582,-506.927,0,0
341914.125,70.1777,-503.031,0,0
343215.75,67.8643,-499.126,0,0
344517.375,65.7671,-495.107,0,0
345819.0,63.6282,-491.007,0,0
347121,61.6016,-486.519,0,0
348422,60.1183,-481.67,0,0
349724,59.1525,-477.227,0,0
351025,58.2705,-472.848,0,0
352327,57.6755,-468.505,0,0
353629,57.225,-464.458,0,0
354930,56.8584,-460.439,0,0
356232,56.5435,-456.53,0,0
357534,56.2993,-452.705,0,0
358835,56.0857,-448.778,0,0
360137,56.1429,-444.846,0,0
361438,56.2844,-441.196,0,0
362740.1,56.478,-437.512,0,0
364041.725,56.7132,-433.768,0,0
365343.35,57.3342,-429.995,0,0
366644.975,57.9215,-426.683,0,0
367946.6,58.0978,-422.974,0,0
369248.225,58.9872,-418.598,0,0
370549.85,60.7819,-414.325,0,0
371851.475,63.3663,-410.417,0,0
373153.1,66.5986,-407.67,0,0
374454.725,69.717,-405.837,0,0
375756.35,72.5203,-404.733,0,0
377057.975,74.9429,-404.156,0,0
378359.6,76.9482,-403.937,0,0
379661,78.3257,-403.832,0,0
380963,80.0265,-403.37,0,0
382264,82.1808,-404.233,0,0
383566,83.1791,-406.191,0,0
384868,82.5347,-408.421,0,0
386169,80.6077,-409.943,0,0
387471,77.9248,-410.411,0,0
388773,75.1372,-409.671,0,0
390074,72.926,-408.105,0,0
391376,71.4084,-406.668,0,0
392677,69.4967,-405.671,0,0
393979,67.033,-404.186,0,0
395280.7,64.4682,-401.925,0,0
396582.325,62.152,-399.034,0,0
397883.95,60.3527,-395.516,0,0
399185.575,59.3338,-391.804,0,0
400006.6,59.0043,-389.634,0,0

File: sample_2.csv
Frequency (Hz),Impedance (ohms),Phase (Radians),Temperature (C),Humidity (%)
10000.0,224.118,-11497.2,0,0
11301.625,199.382,-10182.1,0,0
12603.25,179.747,-9141.03,0,0
13904.875,183.637,-8286.29,0,0
15206.5,164.151,-7596.09,0,0
16508.125,140.431,-6997.41,0,0
17809.75,130.528,-6486.99,0,0
19111.375,126.557,-6044.55,0,0
20413.0,116.203,-5658.23,0,0
21714.625,126.969,-5328.55,0,0
23016.25,111.176,-5030.34,0,0
24317.875,101.702,-4763.2,0,0
25619.5,95.4808,-4517.18,0,0
26921.1,93.3499,-4298.26,0,0
28222.7,88.7541,-4097.55,0,0
29524.4,92.4591,-3912.42,0,0
30826,86.6729,-3758.33,0,0
32127.6,80.7744,-3602.95,0,0
33429.2,78.6875,-3464.07,0,0
34730.9,74.5339,-3332.24,0,0
36032.5,72.049,-3210.31,0,0
37334.1,69.9648,-3095.79,0,0
38635.7,67.8392,-2990.28,0,0
39937.4,65.7815,-2890.99,0,0
41239,64.8527,-2797.52,0,0
42540.6,63.8375,-2710.36,0,0
43842.225,62.3939,-2628.07,0,0
45143.85,61.2479,-2550.12,0,0
46445.475,60.5548,-2477.29,0,0
47747.1,59.5666,-2407.29,0,0
49048.725,59.867,-2343.3,0,0
50350.35,57.069,-2280.75,0,0
51651.975,55.9318,-2221.13,0,0
52953.6,54.2867,-2163.61,0,0
54255.225,53.4751,-2108.58,0,0
55556.85,53.1576,-2056.29,0,0
56858.475,53.2074,-2006.32,0,0
58160.1,53.4958,-1958.64,0,0
59461.7,53.946,-1912.42,0,0
60763.3,55.9023,-1869.73,0,0
62065,58.4189,-1831.26,0,0
63366.6,54.8785,-1794.14,0,0
64668.2,52.4188,-1755.76,0,0
65969.8,50.2884,-1716.63,0,0
67271.5,50.6515,-1679,0,0
68573.1,52.8884,-1645.05,0,0
69874.7,55.1358,-1614.31,0,0
71176.3,52.0891,-1586.26,0,0
72478,47.2499,-1555.6,0,0
73779.6,44.5657,-1522.46,0,0
75081.2,44.6755,-1489.87,0,0
76382.825,46.4986,-1459.41,0,0
77684.45,49.312,-1431.06,0,0
78986.075,52.5062,-1406.62,0,0
80287.7,51.3373,-1385.03,0,0
81589.325,48.6898,-1359.99,0,0
82890.95,47.4738,-1334.08,0,0
84192.575,48.2465,-1309.31,0,0
85494.2,48.8178,-1285.73,0,0
86795.825,49.7412,-1263.33,0,0
88097.45,50.2792,-1241.93,0,0
89399.075,50.8658,-1220.55,0,0
90700.7,50.5378,-1200.1,0,0
92002.3,52.4619,-1178.52,0,0
93303.9,54.743,-1159.87,0,0
94605.6,54.6462,-1143.53,0,0
95907.2,53.7496,-1123.71,0,0
97208.8,57.0838,-1106.37,0,0
98510.4,56.52,-1092.47,0,0
99812.1,52.695,-1077.17,0,0
101114,49.9829,-1059.86,0,0
102415,46.5627,-1039.67,0,0
103717,45.6482,-1018.63,0,0
105019,49.0079,-998.417,0,0
106320.175,53.3659,-981.014,0,0
107621.8,57.6536,-969.23,0,0
108923.425,55.9778,-957.368,0,0
110225.05,52.4918,-942.328,0,0
111526.675,51.023,-924.349,0,0
112828.3,51.2165,-906.96,0,0
114129.925,52.6123,-889.65,0,0
115431.55,55.1076,-872.904,0,0
116733.175,58.1485,-857.058,0,0
118034.8,62.1096,-842.138,0,0
119336.425,66.3269,-829.369,0,0
120638.05,69.517,-818.639,0,0
121939.675,69.625,-807.868,0,0
123241,69.21,-795.092,0,0
124543,69.3656,-782.133,0,0
125845,68.9438,-768.024,0,0
127146,69.8091,-752.791,0,0
128448,72.3469,-737.941,0,0
129749,75.7026,-724.177,0,0
131051,79.5702,-711.664,0,0
132353,81.3845,-700.225,0,0
133654,82.7926,-687.803,0,0
134956,83.3894,-674.833,0,0
136258,84.7281,-660.216,0,0
137559,87.2109,-645.335,0,0
138860.775,89.5244,-630.893,0,0
140162.4,91.5803,-614.601,0,0
141464.025,96.5975,-595.87,0,0
142765.65,105.254,-579.162,0,0
144067.275,113.498,-563.223,0,0
145368.9,123.07,-547.294,0,0
146670.525,133.898,-531.567,0,0
147972.15,147.251,-514.824,0,0
149273.775,166.789,-497.799,0,0
150575.4,194.166,-488.799,0,0
151877.025,220.775,-493.215,0,0
153178.65,236.73,-506.665,0,0
154480,241.519,-518.614,0,0
155782,243.072,-524.895,0,0
157084,240.763,-529.97,0,0
158385,236.874,-530.159,0,0
159687,232.94,-525.544,0,0
160988,233.515,-519.195,0,0
162290,242.717,-517.81,0,0
163592,237.877,-526.072,0,0
164893,224.273,-525.65,0,0
166195,210.536,-513.905,0,0
167497,201.597,-498.729,0,0
168798,194.731,-477.251,0,0
170100,194.713,-454.495,0,0
171401.375,197.929,-432.373,0,0
172703.0,205.375,-409.238,0,0
174004.625,215.355,-386.277,0,0
175306.25,230.844,-363.086,0,0
176607.875,252.443,-342.867,0,0
177909.5,279.113,-330.371,0,0
179211.125,302.248,-327.54,0,0
180512.75,312.52,-326.824,0,0
181814.375,317.972,-313.156,0,0
183116.0,331.373,-294.076,0,0
184417.625,354.043,-270.768,0,0
185719.25,383.799,-252.999,0,0
187021,416.984,-237.41,0,0
188322,456.979,-226.942,0,0
189624,493.796,-221.614,0,0
190926,537.414,-211.569,0,0
192227,594.937,-207.001,0,0
193529,664.572,-217.589,0,0
194831,733.248,-252.872,0,0
196132,790.939,-304.9,0,0
197434,839.147,-365.863,0,0
198735,876.417,-442.501,0,0
200037,893.992,-525.105,0,0
201339,891.91,-613.13,0,0
202640.35,864.683,-691.557,0,0
203941.975,825.041,-756.962,0,0
205243.6,781.558,-812.942,0,0
206545.225,721.733,-851.298,0,0
207846.85,665.671,-870.188,0,0
209148.475,627.122,-879.227,0,0
210450.1,587.176,-898.353,0,0
211751.725,536.89,-909.297,0,0
213053.35,490.235,-901.265,0,0
214354.975,453.864,-889.002,0,0
215656.6,423.087,-874.373,0,0
216958.225,399.373,-856.37,0,0
218259.85,382.678,-839.769,0,0
219561,370.091,-824.383,0,0
220863,360.386,-811.133,0,0
222165,355.525,-799.523,0,0
223466,351.393,-792.492,0,0
224768,347.366,-786.568,0,0
226070,344.411,-782.123,0,0
227371,343.236,-779.847,0,0
228673,343.505,-782.768,0,0
229974,338.296,-790.905,0,0
231276,327.963,-797.616,0,0
232578,315.009,-803.608,0,0
233879,299.125,-806.587,0,0
235180.95,282.603,-806.535,0,0
236482.575,266.604,-804.579,0,0
237784.2,249.671,-800.688,0,0
239085.825,234.558,-794.113,0,0
240387.45,219.875,-786.415,0,0
241689.075,206.993,-776.525,0,0
242990.7,197.322,-765.46,0,0
244292.325,190.586,-756.623,0,0
245593.95,183.926,-751.149,0,0
246895.575,173.133,-747.923,0,0
248197.2,158.511,-740.253,0,0
249498.825,144.969,-728.575,0,0
250800,132.975,-713.497,0,0
252102,125.174,-695.715,0,0
253404,121.469,-678.635,0,0
254705,119.532,-662.705,0,0
256007,119.75,-646.469,0,0
257309,122.835,-631.748,0,0
258610,127.487,-618.601,0,0
259912,133.873,-607.064,0,0
261213,141.535,-598.085,0,0
262515,149.492,-591.755,0,0
263817,156.718,-587.406,0,0
265118,163.77,-584.413,0,0
266420,169.874,-583.555,0,0
267721.55,174.77,-583.55,0,0
269023.175,177.966,-585.066,0,0
270324.8,178.15,-585.052,0,0
271626.425,179.28,-582.405,0,0
272928.05,182.205,-578.389,0,0
274229.675,189.898,-574.543,0,0
275531.3,202.265,-577.027,0,0
276832.925,211.86,-589.294,0,0
278134.55,211.877,-605.18,0,0
279436.175,204.524,-618.163,0,0
280737.8,193.592,-626.69,0,0
282039.425,182.139,-632.138,0,0
283341,167.043,-634.712,0,0
284643,154.423,-631.114,0,0
285944,141.349,-628.045,0,0
287246,126.677,-618.946,0,0
288548,116.429,-602.211,0,0
289849,117.084,-582.374,0,0
291151,127.167,-568.409,0,0
292452,142.201,-564.357,0,0
293754,150.846,-572.639,0,0
295056,148.702,-577.566,0,0
296357,151.152,-576.786,0,0
297659,155.183,-587.233,0,0
298960.525,146.269,-596.94,0,0
300262.15,134.966,-599.123,0,0
301563.775,126.359,-596.557,0,0
302865.4,121.156,-594.018,0,0
304167.025,116.074,-593.763,0,0
305468.65,108.824,-593.574,0,0
306770.275,100.186,-591.182,0,0
308071.9,92.3809,-586.828,0,0
309373.525,85.4029,-581.457,0,0
310675.15,79.4007,-575.386,0,0
311976.775,74.3297,-568.928,0,0
313278.4,70.1234,-562.246,0,0
314580,66.6865,-555.569,0,0
315882,63.7995,-549.143,0,0
317183,61.3189,-542.652,0,0
318485,59.5902,-536.027,0,0
319787,58.2256,-530.06,0,0
321088,56.854,-524.109,0,0
322390,55.7604,-517.921,0,0
323691,55.1905,-511.613,0,0
324993,55.3878,-504.838,0,0
326295,57.3977,-498.122,0,0
327596,60.8366,-493.768,0,0
328898,63.254,-491.06,0,0
330200,65.4254,-488.942,0,0
331501.125,66.9577,-488.09,0,0
332802.75,66.8706,-488.298,0,0
334104.375,64.7105,-487.635,0,0
335406.0,62.2595,-485.367,0,0
336707.625,60.036,-482.428,0,0
338009.25,58.1972,-478.916,0,0
339310.875,56.5591,-475.163,0,0
340612.5,55.2046,-471.058,0,0
341914.125,54.1502,-466.752,0,0
343215.75,53.5285,-462.308,0,0
344517.375,53.3439,-457.625,0,0
345819.0,53.837,-452.993,0,0
347121,54.7494,-448.804,0,0
348422,56.0719,-444.8,0,0
349724,57.7788,-441.213,0,0
351025,59.7005,-438.315,0,0
352327,61.4029,-436.172,0,0
353629,62.4474,-434.045,0,0
354930,63.6564,-431.649,0,0
356232,65.0986,-429.385,0,0
357534,66.9222,-427.387,0,0
358835,68.9534,-426.213,0,0
360137,70.6897,-425.767,0,0
361438,71.6777,-425.755,0,0
362740.1,71.8731,-425.906,0,0
364041.725,71.584,-425.682,0,0
365343.35,70.9087,-425.172,0,0
366644.975,70.321,-424.115,0,0
367946.6,70.0982,-422.787,0,0
369248.225,70.5149,-421.972,0,0
370549.85,70.2175,-422.196,0,0
371851.475,68.9136,-421.802,0,0
373153.1,68.0321,-421.089,0,0
374454.725,66.8084,-420.625,0,0
375756.35,65.1418,-419.987,0,0
377057.975,63.493,-418.912,0,0
378359.6,61.7925,-418.133,0,0
379661,58.7108,-417.139,0,0
380963,56.0106,-413.599,0,0
382264,55.9125,-410.836,0,0
383566,54.7989,-409.827,0,0
384868,52.5151,-408.174,0,0
386169,50.1796,-405.472,0,0
387471,48.3486,-402.271,0,0
388773,46.9094,-398.774,0,0
390074,46.3816,-395.046,0,0
391376,46.6092,-392.324,0,0
392677,45.9289,-390.592,0,0
393979,44.1592,-388.268,0,0
395280.7,42.3052,-384.748,0,0
396582.325,41.3303,-380.49,0,0
397883.95,41.2098,-376.229,0,0
399185.575,41.7562,-372.267,0,0
400006.6,42.254,-369.993,0,0