Folder: ML_Dmg_Mehdi_Dataset/Accelerated corrosion test data/2025-10-09_06-00-03 (part 3)

File: sample_6.csv
Frequency (Hz),Impedance (ohms),Phase (Radians),Temperature (C),Humidity (%)
10000.0,4217.03,-6555.63,0,0
11301.625,3588.41,-6174.46,0,0
12603.25,3088.19,-5810.21,0,0
13904.875,2683.6,-5475.53,0,0
15206.5,2352.39,-5163.85,0,0
16508.125,2079.73,-4878.74,0,0
17809.75,1852.21,-4618.77,0,0
19111.375,1662.61,-4379.27,0,0
20413.0,1498.85,-4163.03,0,0
21714.625,1358.86,-3962.04,0,0
23016.25,1242.75,-3775.67,0,0
24317.875,1137.32,-3614.11,0,0
25619.5,1045.01,-3458.55,0,0
26921.1,964.282,-3314.12,0,0
28222.7,894.932,-3181.21,0,0
29524.4,831.251,-3054.73,0,0
30826,777.225,-2940.31,0,0
32127.6,728.394,-2830.06,0,0
33429.2,690.861,-2731.76,0,0
34730.9,650.155,-2643.61,0,0
36032.5,611.659,-2560.31,0,0
37334.1,575.401,-2476.25,0,0
38635.7,543.276,-2396.28,0,0
39937.4,518.006,-2319.34,0,0
41239,495.623,-2250.48,0,0
42540.6,473.242,-2187.57,0,0
43842.225,452.201,-2120.92,0,0
45143.85,438.88,-2060.36,0,0
46445.475,428.024,-2008.35,0,0
47747.1,414.778,-1962.59,0,0
49048.725,399.357,-1921.19,0,0
50350.35,377.907,-1881.29,0,0
51651.975,356.785,-1835.56,0,0
52953.6,340.076,-1790.24,0,0
54255.225,323.107,-1747.61,0,0
55556.85,307.874,-1704.78,0,0
56858.475,295.757,-1659.22,0,0
58160.1,289.451,-1619.81,0,0
59461.7,280.689,-1584.4,0,0
60763.3,270.887,-1548.88,0,0
62065,263.052,-1513.86,0,0
63366.6,259.238,-1477.74,0,0
64668.2,254.182,-1452.49,0,0
65969.8,244.683,-1423.99,0,0
67271.5,234.019,-1393.07,0,0
68573.1,228.368,-1359.85,0,0
69874.7,226.688,-1329.87,0,0
71176.3,226.296,-1303.69,0,0
72478,224.144,-1281.63,0,0
73779.6,219.2,-1259.78,0,0
75081.2,214.802,-1236.5,0,0
76382.825,210.713,-1214.6,0,0
77684.45,206.57,-1193.02,0,0
78986.075,202.52,-1171.45,0,0
80287.7,199.153,-1150.24,0,0
81589.325,196.449,-1129.58,0,0
82890.95,194.115,-1110.18,0,0
84192.575,191.662,-1091.16,0,0
85494.2,189.988,-1073.42,0,0
86795.825,186.273,-1055.85,0,0
88097.45,184.057,-1036.59,0,0
89399.075,184.866,-1018.57,0,0
90700.7,185.771,-1004.87,0,0
92002.3,182.726,-993.103,0,0
93303.9,178.221,-978.418,0,0
94605.6,175.59,-961.634,0,0
95907.2,175.042,-948.017,0,0
97208.8,171.717,-936.545,0,0
98510.4,166.605,-921.162,0,0
99812.1,165.347,-906.073,0,0
101114,164.333,-894.21,0,0
102415,160.498,-882.068,0,0
103717,156.213,-870.747,0,0
105019,148.41,-858.816,0,0
106320.175,139.423,-840.668,0,0
107621.8,136.504,-818.693,0,0
108923.425,137.916,-799.26,0,0
110225.05,140.445,-781.232,0,0
111526.675,144.904,-764.039,0,0
112828.3,152.112,-751.463,0,0
114129.925,157.232,-740.937,0,0
115431.55,162.595,-731.322,0,0
116733.175,170.274,-726.517,0,0
118034.8,166.355,-727.037,0,0
119336.425,159.545,-716.764,0,0
120638.05,159.908,-703.516,0,0
121939.675,160.351,-699.457,0,0
123241,154.955,-690.008,0,0
124543,152.318,-680.141,0,0
125845,148.601,-670.08,0,0
127146,144.506,-658.274,0,0
128448,142.531,-643.856,0,0
129749,144.331,-631.588,0,0
131051,144.276,-621.915,0,0
132353,142.934,-611.361,0,0
133654,141.716,-600.227,0,0
134956,140.26,-588.092,0,0
136258,139.627,-574.551,0,0
137559,140.857,-560.865,0,0
138860.775,143.033,-547.911,0,0
140162.4,145.869,-535.121,0,0
141464.025,150.712,-522.849,0,0
142765.65,155.412,-513.626,0,0
144067.275,158.591,-504.33,0,0
145368.9,162.246,-495.083,0,0
146670.525,164.947,-487.358,0,0
147972.15,165.489,-479.719,0,0
149273.775,164.604,-469.105,0,0
150575.4,164.764,-455.67,0,0
151877.025,168.092,-439.718,0,0
153178.65,178.126,-426.25,0,0
154480,185.363,-420.155,0,0
155782,189.337,-409.56,0,0
157084,198.821,-401.268,0,0
158385,202.893,-398.229,0,0
159687,203.328,-391.066,0,0
160988,204.696,-381.492,0,0
162290,206.027,-371.494,0,0
163592,207.807,-359.024,0,0
164893,210.315,-345.787,0,0
166195,214.84,-330.19,0,0
167497,221.455,-315.937,0,0
168798,228.999,-300.657,0,0
170100,237.76,-286.356,0,0
171401.375,246.926,-271.859,0,0
172703.0,256.65,-256.638,0,0
174004.625,267.033,-241.001,0,0
175306.25,277.987,-223.167,0,0
176607.875,291.85,-202.713,0,0
177909.5,310.194,-180.547,0,0
179211.125,334.943,-157.98,0,0
180512.75,366.661,-140.718,0,0
181814.375,398.435,-128.751,0,0
183116.0,431.949,-119.89,0,0
184417.625,462.888,-114.492,0,0
185719.25,492.119,-105.796,0,0
187021,525.941,-91.8681,0,0
188322,570.234,-73.383,0,0
189624,634.748,-58.6025,0,0
190926,718.237,-64.7471,0,0
192227,798.677,-102.977,0,0
193529,863.746,-155.441,0,0
194831,920.257,-217.971,0,0
196132,966.059,-291.023,0,0
197434,998.975,-372.513,0,0
198735,1016.52,-459.163,0,0
200037,1020.86,-549.359,0,0
201339,1006.89,-643.067,0,0
202640.35,970.213,-731.055,0,0
203941.975,918.333,-803.623,0,0
205243.6,858.577,-862.075,0,0
206545.225,793.482,-906.534,0,0
207846.85,727.362,-937.557,0,0
209148.475,661.829,-957.392,0,0
210450.1,598.361,-967.149,0,0
211751.725,535.476,-966.947,0,0
213053.35,479.856,-953.993,0,0
214354.975,434.547,-937.708,0,0
215656.6,395.171,-919.242,0,0
216958.225,360.725,-899.533,0,0
218259.85,330.265,-878.806,0,0
219561,303.549,-856.575,0,0
220863,280.842,-833.219,0,0
222165,262.145,-808.92,0,0
223466,247.791,-783.507,0,0
224768,239.811,-758.12,0,0
226070,238.61,-736.645,0,0
227371,239.87,-723.181,0,0
228673,236.282,-715.104,0,0
229974,228.718,-705.594,0,0
231276,220.885,-693.414,0,0
232578,214.452,-679.689,0,0
233879,210.125,-665.183,0,0
235180.95,207.738,-650.753,0,0
236482.575,207.279,-636.817,0,0
237784.2,208.261,-623.651,0,0
239085.825,210.706,-611.102,0,0
240387.45,214.879,-599.426,0,0
241689.075,220.419,-589.075,0,0
242990.7,227.282,-580.03,0,0
244292.325,235.894,-572.321,0,0
245593.95,246.103,-567.524,0,0
246895.575,256.348,-565.717,0,0
248197.2,266.18,-566.445,0,0
249498.825,274.36,-568.991,0,0
250800,283.586,-570.898,0,0
252102,296.407,-577.683,0,0
253404,306.642,-592.509,0,0
254705,309.971,-611.887,0,0
256007,305.154,-632.184,0,0
257309,293.391,-648.976,0,0
258610,278.243,-660.704,0,0
259912,261.694,-668.086,0,0
261213,245.092,-671.378,0,0
262515,229.399,-671.305,0,0
263817,215.672,-669.198,0,0
265118,203.228,-666.099,0,0
266420,191.65,-662.009,0,0
267721.55,181.129,-657.498,0,0
269023.175,171.356,-652.36,0,0
270324.8,162.299,-646.868,0,0
271626.425,153.834,-641.094,0,0
272928.05,146.133,-634.73,0,0
274229.675,139.018,-628.173,0,0
275531.3,132.539,-621.422,0,0
276832.925,126.887,-614.506,0,0
278134.55,121.807,-607.599,0,0
279436.175,117.272,-600.596,0,0
280737.8,113.584,-593.43,0,0
282039.425,110.97,-587.032,0,0
283341,108.192,-581.284,0,0
284643,105.517,-575.386,0,0
285944,103.718,-569.618,0,0
287246,102.13,-565.01,0,0
288548,99.8764,-560.802,0,0
289849,97.4199,-556.327,0,0
291151,95.1339,-551.695,0,0
292452,93.1464,-547.265,0,0
293754,91.1076,-543.235,0,0
295056,88.6171,-539.312,0,0
296357,85.7171,-534.853,0,0
297659,83.1843,-529.469,0,0
298960.525,82.0197,-523.911,0,0
300262.15,81.5105,-519.518,0,0
301563.775,80.5273,-515.767,0,0
302865.4,79.2326,-511.982,0,0
304167.025,77.9593,-507.99,0,0
305468.65,76.983,-504.139,0,0
306770.275,76.2952,-500.627,0,0
308071.9,75.2176,-497.599,0,0
309373.525,73.8186,-494.427,0,0
310675.15,72.422,-491.098,0,0
311976.775,71.0161,-487.925,0,0
313278.4,69.4821,-484.602,0,0
314580,67.9623,-481.037,0,0
315882,66.6485,-477.475,0,0
317183,65.5085,-473.994,0,0
318485,64.2483,-470.717,0,0
319787,63.0855,-467.235,0,0
321088,61.8636,-463.659,0,0
322390,60.8671,-460.096,0,0
323691,60.0741,-456.702,0,0
324993,59.2107,-453.448,0,0
326295,58.2371,-450.233,0,0
327596,57.2469,-446.906,0,0
328898,56.4116,-443.532,0,0
330200,55.5804,-440.169,0,0
331501.125,54.8336,-436.778,0,0
332802.75,54.222,-433.39,0,0
334104.375,53.6763,-429.991,0,0
335406.0,53.3739,-426.703,0,0
336707.625,53.0424,-423.569,0,0
338009.25,52.7225,-420.561,0,0
339310.875,52.3179,-417.51,0,0
340612.5,52.0191,-414.473,0,0
341914.125,51.819,-411.374,0,0
343215.75,51.8401,-408.495,0,0
344517.375,51.8012,-406.173,0,0
345819.0,51.1177,-403.621,0,0
347121,50.4981,-400.699,0,0
348422,50.2114,-397.678,0,0
349724,50.0373,-394.713,0,0
351025,50.0014,-391.871,0,0
352327,50.0646,-389.109,0,0
353629,50.2015,-386.481,0,0
354930,50.2154,-384.093,0,0
356232,50.1224,-381.636,0,0
357534,50.0248,-379.164,0,0
358835,50.0196,-376.769,0,0
360137,49.9648,-374.478,0,0
361438,49.8233,-372.269,0,0
362740.1,49.5099,-369.938,0,0
364041.725,49.2687,-367.494,0,0
365343.35,49.0539,-365.01,0,0
366644.975,49.0081,-362.585,0,0
367946.6,48.9619,-360.188,0,0
369248.225,48.9226,-357.829,0,0
370549.85,48.9167,-355.415,0,0
371851.475,49.0416,-353.075,0,0
373153.1,49.2441,-350.951,0,0
374454.725,49.3089,-349.161,0,0
375756.35,48.8852,-347.337,0,0
377057.975,48.3558,-345.16,0,0
378359.6,47.9536,-342.824,0,0
379661,47.5565,-340.399,0,0
380963,47.1933,-337.783,0,0
382264,47.0576,-335.053,0,0
383566,47.4077,-332.543,0,0
384868,47.4151,-330.484,0,0
386169,47.1543,-328.157,0,0
387471,46.9549,-325.692,0,0
388773,46.8199,-323.17,0,0
390074,46.7531,-320.628,0,0
391376,46.7819,-318.031,0,0
392677,46.7945,-315.476,0,0
393979,46.8524,-312.898,0,0
395280.7,46.9544,-310.258,0,0
396582.325,47.1124,-307.609,0,0
397883.95,47.3311,-304.935,0,0
399185.575,47.5446,-302.219,0,0
400006.6,47.7186,-300.524,0,0

File: sample_7.csv
Frequency (Hz),Impedance (ohms),Phase (Radians),Temperature (C),Humidity (%)
10000.0,277.185,-12092.5,0,0
11301.625,250.399,-10698.5,0,0
12603.25,262.147,-9638.96,0,0
13904.875,213.287,-8751.78,0,0
15206.5,195.9,-8016.06,0,0
16508.125,173.95,-7374.41,0,0
17809.75,174.282,-6819.37,0,0
19111.375,183.704,-6372.97,0,0
20413.0,169.235,-5986.07,0,0
21714.625,156.922,-5643.37,0,0
23016.25,131.71,-5319.05,0,0
24317.875,124.724,-5025.81,0,0
25619.5,120.11,-4761.78,0,0
26921.1,124.912,-4516.58,0,0
28222.7,181.746,-4314.17,0,0
29524.4,138.674,-4171.41,0,0
30826,135.632,-3987.09,0,0
32127.6,119.125,-3843.05,0,0
33429.2,102.743,-3692.28,0,0
34730.9,93.8532,-3547.34,0,0
36032.5,89.5888,-3413.56,0,0
37334.1,87.3585,-3289.92,0,0
38635.7,87.7348,-3172.79,0,0
39937.4,98.3486,-3072.57,0,0
41239,87.6172,-2985.09,0,0
42540.6,81.4022,-2888.96,0,0
43842.225,80.2449,-2799.82,0,0
45143.85,81.1572,-2722.35,0,0
46445.475,78.1932,-2650.43,0,0
47747.1,71.7825,-2574.01,0,0
49048.725,68.9501,-2503.59,0,0
50350.35,66.9959,-2436.58,0,0
51651.975,65.4354,-2372.81,0,0
52953.6,64.3405,-2312.24,0,0
54255.225,63.1698,-2255.37,0,0
55556.85,61.9802,-2200.66,0,0
56858.475,61.0224,-2148.26,0,0
58160.1,60.4437,-2097.76,0,0
59461.7,60.6323,-2050.38,0,0
60763.3,59.9859,-2006.64,0,0
62065,57.9588,-1963.28,0,0
63366.6,56.7271,-1920.47,0,0
64668.2,55.8169,-1879.88,0,0
65969.8,55.8641,-1841.41,0,0
67271.5,54.232,-1804.42,0,0
68573.1,52.9898,-1767.72,0,0
69874.7,52.5526,-1732.47,0,0
71176.3,52.434,-1698.98,0,0
72478,51.052,-1666.59,0,0
73779.6,50.2298,-1634.71,0,0
75081.2,49.7419,-1603.99,0,0
76382.825,49.2246,-1574.01,0,0
77684.45,48.9604,-1545.19,0,0
78986.075,48.6339,-1517.19,0,0
80287.7,48.4608,-1490.16,0,0
81589.325,48.1496,-1463.78,0,0
82890.95,47.9116,-1438.15,0,0
84192.575,48.0389,-1413.04,0,0
85494.2,48.1729,-1388.95,0,0
86795.825,48.239,-1365.4,0,0
88097.45,48.386,-1342.66,0,0
89399.075,48.174,-1320.27,0,0
90700.7,48.4945,-1298.31,0,0
92002.3,49.0181,-1276.75,0,0
93303.9,49.4317,-1255.73,0,0
94605.6,51.2868,-1235.98,0,0
95907.2,51.0461,-1217.8,0,0
97208.8,50.4293,-1198.36,0,0
98510.4,51.4133,-1179.11,0,0
99812.1,51.1584,-1160.16,0,0
101114,52.5184,-1141.34,0,0
102415,53.9341,-1123.15,0,0
103717,56.9156,-1106.61,0,0
105019,57.8229,-1091.39,0,0
106320.175,57.5719,-1075.22,0,0
107621.8,58.5715,-1059.21,0,0
108923.425,59.467,-1043.17,0,0
110225.05,59.7485,-1026.39,0,0
111526.675,62.8424,-1009.61,0,0
112828.3,66.9607,-993.587,0,0
114129.925,71.6522,-979.579,0,0
115431.55,77.4373,-966.134,0,0
116733.175,85.1722,-957.203,0,0
118034.8,88.8715,-951.213,0,0
119336.425,91.9556,-948.143,0,0
120638.05,86.0091,-947.353,0,0
121939.675,76.43,-937.667,0,0
123241,69.231,-924.566,0,0
124543,65.196,-910.224,0,0
125845,61.0398,-896.581,0,0
127146,57.7975,-881.639,0,0
128448,56.2177,-866.993,0,0
129749,54.903,-852.364,0,0
131051,53.67,-838.068,0,0
132353,53.1856,-822.74,0,0
133654,53.6304,-807.116,0,0
134956,56.4326,-792.057,0,0
136258,61.6422,-779.46,0,0
137559,62.3884,-771.26,0,0
138860.775,60.5351,-759.515,0,0
140162.4,60.9993,-746.022,0,0
141464.025,61.0613,-732.802,0,0
142765.65,62.3511,-718.756,0,0
144067.275,64.9124,-705.889,0,0
145368.9,66.5414,-693.518,0,0
146670.525,67.3936,-680.436,0,0
147972.15,69.3684,-667.165,0,0
149273.775,69.5746,-654.161,0,0
150575.4,70.4672,-638.289,0,0
151877.025,73.0963,-620.811,0,0
153178.65,77.9699,-603.002,0,0
154480,84.7322,-584.89,0,0
155782,94.0532,-567.172,0,0
157084,106.008,-551.147,0,0
158385,119.686,-538.837,0,0
159687,128.759,-530.825,0,0
160988,132.145,-516.237,0,0
162290,142.321,-492.413,0,0
163592,161.938,-469.228,0,0
164893,188.426,-451.113,0,0
166195,217.791,-432.543,0,0
167497,262.578,-420.925,0,0
168798,316.847,-427.909,0,0
170100,363.115,-456.166,0,0
171401.375,396.243,-502.118,0,0
172703.0,410.268,-561.071,0,0
174004.625,386.136,-615.706,0,0
175306.25,345.723,-634.802,0,0
176607.875,323.593,-625.37,0,0
177909.5,334.025,-626.57,0,0
179211.125,332.533,-663.432,0,0
180512.75,303.23,-687.127,0,0
181814.375,261.37,-702.712,0,0
183116.0,218.235,-691.571,0,0
184417.625,188.315,-669.59,0,0
185719.25,169.558,-646.907,0,0
187021,155.346,-619.546,0,0
188322,152.811,-595.217,0,0
189624,146.109,-578.121,0,0
190926,139.241,-555.717,0,0
192227,138.301,-530.484,0,0
193529,140.915,-505.355,0,0
194831,147.681,-480.45,0,0
196132,159.061,-458.458,0,0
197434,172.002,-439.477,0,0
198735,183.812,-421.722,0,0
200037,197.103,-401.605,0,0
201339,215.233,-380.951,0,0
202640.35,240.231,-360.903,0,0
203941.975,270.856,-345.223,0,0
205243.6,306.469,-335.652,0,0
206545.225,346.044,-338.335,0,0
207846.85,373.116,-348.813,0,0
209148.475,405.019,-347.025,0,0
210450.1,455.83,-362.067,0,0
211751.725,493.68,-405.73,0,0
213053.35,507.824,-454.975,0,0
214354.975,507.221,-497.386,0,0
215656.6,496.476,-530.026,0,0
216958.225,488.645,-563.041,0,0
218259.85,465.881,-590.878,0,0
219561,434.588,-608.911,0,0
220863,403.879,-606.687,0,0
222165,386.971,-592.776,0,0
223466,383.591,-580.81,0,0
224768,384.77,-572.667,0,0
226070,395.629,-563.37,0,0
227371,412.689,-567.189,0,0
228673,430.857,-582.125,0,0
229974,440.099,-607.264,0,0
231276,439.29,-640.412,0,0
232578,427.549,-670.836,0,0
233879,402.252,-701.649,0,0
235180.95,359.968,-718.208,0,0
236482.575,324.562,-711.028,0,0
237784.2,297.185,-703.252,0,0
239085.825,272.679,-682.107,0,0
240387.45,270.416,-663.444,0,0
241689.075,263.717,-659.444,0,0
242990.7,249.195,-649.264,0,0
244292.325,241.346,-630.116,0,0
245593.95,247.094,-615.379,0,0
246895.575,250.342,-610.305,0,0
248197.2,250.789,-604.365,0,0
249498.825,253.317,-598.193,0,0
250800,257.106,-594.537,0,0
252102,262.321,-593.342,0,0
253404,266.381,-597.308,0,0
254705,264.607,-604.13,0,0
256007,257.581,-608.347,0,0
257309,248.306,-608.199,0,0
258610,240.166,-602.573,0,0
259912,235.67,-595.932,0,0
261213,232.794,-586.215,0,0
262515,237.243,-575.542,0,0
263817,247.987,-572.096,0,0
265118,254.601,-576.826,0,0
266420,257.224,-579.688,0,0
267721.55,261.463,-584.869,0,0
269023.175,262.031,-592.277,0,0
270324.8,262.595,-597.393,0,0
271626.425,267.036,-605.32,0,0
272928.05,270.941,-627.729,0,0
274229.675,252.394,-656.474,0,0
275531.3,216.641,-670.405,0,0
276832.925,179.891,-663.214,0,0
278134.55,153.338,-641.592,0,0
279436.175,141.239,-617.711,0,0
280737.8,137.689,-596.745,0,0
282039.425,137.485,-583.475,0,0
283341,133.655,-570.109,0,0
284643,134.107,-553.755,0,0
285944,139.385,-540.097,0,0
287246,145.894,-531.559,0,0
288548,149.518,-524.717,0,0
289849,153.154,-516.367,0,0
291151,158.981,-507.411,0,0
292452,166.907,-501.019,0,0
293754,174.729,-495.943,0,0
295056,183.116,-491.153,0,0
296357,194.053,-487.132,0,0
297659,207.573,-486.354,0,0
298960.525,221.232,-489.962,0,0
300262.15,234.929,-496.433,0,0
301563.775,250.001,-508.116,0,0
302865.4,263.259,-530.979,0,0
304167.025,260.419,-560.897,0,0
305468.65,245.678,-583.428,0,0
306770.275,225.431,-598.23,0,0
308071.9,204.151,-604.39,0,0
309373.525,183.978,-604.385,0,0
310675.15,167.761,-599.39,0,0
311976.775,155.189,-593.219,0,0
313278.4,144.721,-586.564,0,0
314580,135.524,-578.987,0,0
315882,128.958,-570.277,0,0
317183,124.968,-562.65,0,0
318485,121.67,-556.152,0,0
319787,119.288,-550.005,0,0
321088,117.851,-545.14,0,0
322390,116.252,-541.601,0,0
323691,113.817,-538.647,0,0
324993,110.952,-535.19,0,0
326295,108.716,-531.755,0,0
327596,106.381,-529.048,0,0
328898,103.406,-526.482,0,0
330200,100.183,-523.734,0,0
331501.125,96.8813,-521.015,0,0
332802.75,92.8253,-518.449,0,0
334104.375,87.8169,-514.9,0,0
335406.0,83.085,-510.186,0,0
336707.625,78.7224,-504.695,0,0
338009.25,75.127,-498.322,0,0
339310.875,72.5604,-491.703,0,0
340612.5,70.6326,-485.256,0,0
341914.125,69.2311,-478.575,0,0
343215.75,68.794,-472.016,0,0
344517.375,69.1719,-466.023,0,0
345819.0,69.8978,-460.835,0,0
347121,70.5747,-456.47,0,0
348422,70.4928,-452.569,0,0
349724,69.946,-448.063,0,0
351025,69.5189,-442.911,0,0
352327,70.173,-437.317,0,0
353629,71.8637,-432.318,0,0
354930,73.8672,-428.313,0,0
356232,75.826,-425.637,0,0
357534,76.053,-423.401,0,0
358835,75.3399,-419.963,0,0
360137,75.2063,-415.161,0,0
361438,76.4344,-410.058,0,0
362740.1,78.5708,-405.554,0,0
364041.725,81.0584,-401.764,0,0
365343.35,83.9214,-398.544,0,0
366644.975,86.6242,-396.428,0,0
367946.6,88.7169,-394.503,0,0
369248.225,90.8758,-393.078,0,0
370549.85,92.0989,-392.776,0,0
371851.475,91.246,-391.712,0,0
373153.1,90.4549,-388.54,0,0
374454.725,90.9435,-384.71,0,0
375756.35,92.3065,-381.027,0,0
377057.975,93.8262,-377.973,0,0
378359.6,95.3519,-374.398,0,0
379661,97.715,-370.983,0,0
380963,100.342,-368.246,0,0
382264,102.868,-365.507,0,0
383566,105.888,-363.034,0,0
384868,108.966,-360.992,0,0
386169,111.719,-359.267,0,0
387471,114.434,-357.441,0,0
388773,117.304,-354.93,0,0
390074,121.797,-352.586,0,0
391376,126.442,-351.889,0,0
392677,130.594,-351.337,0,0
393979,134.769,-350.893,0,0
395280.7,139.663,-350.137,0,0
396582.325,146.247,-350.184,0,0
397883.95,154.154,-352.841,0,0
399185.575,161.505,-359.025,0,0
400006.6,164.694,-364.897,0,0