Folder: ML_Dmg_Mehdi_Dataset/Accelerated corrosion test data/2025-10-15_15-08-31 (part 3)

File: sample_7.csv
Frequency (Hz),Impedance (ohms),Phase (Radians),Temperature (C),Humidity (%)
10000.0,273.899,-12065.1,0,0
11301.625,247.122,-10674.3,0,0
12603.25,255.94,-9625.08,0,0
13904.875,209.294,-8733.77,0,0
15206.5,195.535,-7997.58,0,0
16508.125,171.875,-7357.8,0,0
17809.75,171.273,-6803.63,0,0
19111.375,180.596,-6363.31,0,0
20413.0,168.546,-5969.84,0,0
21714.625,157.159,-5629.54,0,0
23016.25,130.514,-5307.27,0,0
24317.875,123.035,-5014.84,0,0
25619.5,118.823,-4751.32,0,0
26921.1,123.031,-4507.63,0,0
28222.7,177.66,-4296.82,0,0
29524.4,139.758,-4164.43,0,0
30826,132.927,-3981.65,0,0
32127.6,117.34,-3833.99,0,0
33429.2,101.855,-3683.39,0,0
34730.9,92.746,-3539.17,0,0
36032.5,88.836,-3405.36,0,0
37334.1,86.1965,-3281.8,0,0
38635.7,86.7946,-3164.98,0,0
39937.4,98.5963,-3065.57,0,0
41239,87.0629,-2978.42,0,0
42540.6,80.4576,-2882.69,0,0
43842.225,78.9979,-2794.06,0,0
45143.85,80.6979,-2716.51,0,0
46445.475,77.6634,-2644.23,0,0
47747.1,70.8428,-2568.18,0,0
49048.725,68.2018,-2498.01,0,0
50350.35,66.2268,-2430.91,0,0
51651.975,64.6742,-2367.41,0,0
52953.6,63.8189,-2307.17,0,0
54255.225,62.5077,-2250.55,0,0
55556.85,61.1339,-2195.91,0,0
56858.475,60.3643,-2143.6,0,0
58160.1,59.5298,-2093.24,0,0
59461.7,59.6501,-2045.86,0,0
60763.3,59.205,-2002.07,0,0
62065,57.084,-1958.91,0,0
63366.6,55.8791,-1916.09,0,0
64668.2,55.1994,-1875.64,0,0
65969.8,55.0783,-1837.17,0,0
67271.5,53.4643,-1800.51,0,0
68573.1,52.2677,-1763.88,0,0
69874.7,51.6034,-1728.55,0,0
71176.3,51.4314,-1694.94,0,0
72478,50.4322,-1662.82,0,0
73779.6,49.7171,-1631.08,0,0
75081.2,49.0915,-1600.33,0,0
76382.825,48.5615,-1570.66,0,0
77684.45,48.3331,-1541.85,0,0
78986.075,47.9565,-1513.98,0,0
80287.7,47.8619,-1487.03,0,0
81589.325,47.4355,-1460.7,0,0
82890.95,47.2225,-1435.21,0,0
84192.575,47.2065,-1410.08,0,0
85494.2,47.4195,-1386.05,0,0
86795.825,47.4244,-1362.66,0,0
88097.45,47.6544,-1340.17,0,0
89399.075,47.1656,-1317.96,0,0
90700.7,47.2598,-1295.65,0,0
92002.3,47.7204,-1274.1,0,0
93303.9,48.2856,-1253,0,0
94605.6,50.1802,-1233.26,0,0
95907.2,50.0764,-1215.29,0,0
97208.8,49.5972,-1195.85,0,0
98510.4,50.3917,-1176.45,0,0
99812.1,49.9623,-1157.86,0,0
101114,51.5595,-1138.87,0,0
102415,53.2199,-1120.72,0,0
103717,55.8454,-1104.19,0,0
105019,56.874,-1089.11,0,0
106320.175,56.2321,-1072.89,0,0
107621.8,57.3904,-1056.66,0,0
108923.425,58.5361,-1040.45,0,0
110225.05,59.0458,-1023.82,0,0
111526.675,62.3815,-1007.06,0,0
112828.3,66.8341,-990.864,0,0
114129.925,72.1161,-977.194,0,0
115431.55,78.2414,-965.024,0,0
116733.175,85.9472,-956.748,0,0
118034.8,89.0285,-951.599,0,0
119336.425,91.2711,-949.174,0,0
120638.05,84.1722,-948.245,0,0
121939.675,73.8417,-937.465,0,0
123241,66.875,-924.533,0,0
124543,62.3955,-909.682,0,0
125845,58.6548,-895.796,0,0
127146,55.3562,-881.05,0,0
128448,53.7338,-866.211,0,0
129749,52.3002,-851.746,0,0
131051,51.1035,-837.265,0,0
132353,50.4277,-822.04,0,0
133654,50.9291,-806.444,0,0
134956,53.7272,-791.762,0,0
136258,58.2325,-778.756,0,0
137559,58.8617,-771.227,0,0
138860.775,56.5438,-758.967,0,0
140162.4,56.6535,-745.078,0,0
141464.025,56.5629,-731.763,0,0
142765.65,57.6866,-717.274,0,0
144067.275,60.303,-703.934,0,0
145368.9,61.7971,-691.446,0,0
146670.525,62.9708,-678.123,0,0
147972.15,64.7007,-664.725,0,0
149273.775,65.5377,-651.652,0,0
150575.4,66.1107,-635.987,0,0
151877.025,68.4678,-618.688,0,0
153178.65,73.0388,-600.811,0,0
154480,79.2623,-582.81,0,0
155782,87.976,-564.888,0,0
157084,99.0925,-548.139,0,0
158385,112.129,-534.742,0,0
159687,121.449,-525.181,0,0
160988,125.555,-510.524,0,0
162290,134.655,-486.295,0,0
163592,153.296,-460.816,0,0
164893,180.279,-440.318,0,0
166195,211.024,-418.619,0,0
167497,259.96,-402.263,0,0
168798,321.234,-407.213,0,0
170100,376.825,-441.923,0,0
171401.375,413.163,-498.103,0,0
172703.0,424.039,-565.168,0,0
174004.625,390.296,-626.836,0,0
175306.25,341.516,-639.241,0,0
176607.875,320.826,-627.076,0,0
177909.5,329.258,-627.276,0,0
179211.125,328.226,-665.327,0,0
180512.75,294.745,-684.798,0,0
181814.375,256.839,-697.171,0,0
183116.0,213.762,-686.77,0,0
184417.625,185.521,-664.5,0,0
185719.25,166.678,-641.819,0,0
187021,152.837,-614.616,0,0
188322,149.33,-589.9,0,0
189624,143.837,-572.155,0,0
190926,138.208,-549.808,0,0
192227,137.613,-525.865,0,0
193529,139.959,-501.338,0,0
194831,146.004,-477.183,0,0
196132,156.992,-456.081,0,0
197434,168.763,-437.9,0,0
198735,177.453,-420.849,0,0
200037,187.9,-399.521,0,0
201339,203.388,-376.441,0,0
202640.35,225.511,-351.707,0,0
203941.975,255.191,-331.05,0,0
205243.6,291.801,-313.222,0,0
206545.225,338.242,-310.259,0,0
207846.85,372.442,-318.261,0,0
209148.475,410.235,-314.626,0,0
210450.1,470.478,-329.504,0,0
211751.725,515.025,-379.996,0,0
213053.35,534.324,-433.952,0,0
214354.975,535.483,-481.535,0,0
215656.6,526.98,-521.728,0,0
216958.225,520.406,-559.516,0,0
218259.85,495.045,-595.195,0,0
219561,459.322,-617.384,0,0
220863,425.815,-616.121,0,0
222165,408.406,-604.18,0,0
223466,404.346,-595.929,0,0
224768,402.065,-592.695,0,0
226070,407.426,-585.72,0,0
227371,419.311,-590.971,0,0
228673,432.36,-605.077,0,0
229974,437.058,-628.525,0,0
231276,433.066,-659.484,0,0
232578,418.798,-688.62,0,0
233879,389.021,-717.835,0,0
235180.95,344.242,-727.449,0,0
236482.575,309.955,-715.218,0,0
237784.2,285.578,-704.904,0,0
239085.825,262.304,-685.41,0,0
240387.45,258.989,-664.778,0,0
241689.075,252.576,-659.418,0,0
242990.7,238.918,-647.991,0,0
244292.325,231.839,-628.709,0,0
245593.95,236.193,-615.057,0,0
246895.575,236.582,-607.532,0,0
248197.2,236.098,-597.653,0,0
249498.825,238.392,-586.99,0,0
250800,244.77,-577.077,0,0
252102,255.072,-570.724,0,0
253404,268.634,-572.295,0,0
254705,275.732,-583.01,0,0
256007,273.398,-593.708,0,0
257309,265.754,-599.347,0,0
258610,258.293,-598.825,0,0
259912,253.149,-598.14,0,0
261213,247.01,-593.157,0,0
262515,246.968,-584.605,0,0
263817,254.868,-581.673,0,0
265118,259.742,-587.754,0,0
266420,258.342,-592.472,0,0
267721.55,257.377,-597.424,0,0
269023.175,252.807,-600.682,0,0
270324.8,252.282,-599.471,0,0
271626.425,259.557,-603.59,0,0
272928.05,265.85,-625.461,0,0
274229.675,248.433,-653.45,0,0
275531.3,214.067,-667.17,0,0
276832.925,177.929,-659.368,0,0
278134.55,153.001,-637.853,0,0
279436.175,142.061,-614.369,0,0
280737.8,139.227,-594.307,0,0
282039.425,139.152,-581.636,0,0
283341,136.009,-568.753,0,0
284643,137.028,-553.234,0,0
285944,142.367,-541.264,0,0
287246,147.742,-533.713,0,0
288548,150.068,-526.977,0,0
289849,153.284,-518.002,0,0
291151,159.488,-508.886,0,0
292452,167.11,-502.802,0,0
293754,175.246,-497.753,0,0
295056,183.879,-493.552,0,0
296357,194.505,-490.67,0,0
297659,207.149,-490.271,0,0
298960.525,220.071,-494.162,0,0
300262.15,233.599,-501.25,0,0
301563.775,247.837,-513.892,0,0
302865.4,258.46,-538.046,0,0
304167.025,252.054,-566.299,0,0
305468.65,236.098,-586,0,0
306770.275,215.745,-598.122,0,0
308071.9,195.123,-602.391,0,0
309373.525,175.996,-600.546,0,0
310675.15,161.602,-594.266,0,0
311976.775,150.885,-588.143,0,0
313278.4,141.191,-582.016,0,0
314580,132.495,-574.404,0,0
315882,126.926,-565.583,0,0
317183,123.87,-558.682,0,0
318485,121.093,-552.941,0,0
319787,118.796,-547.764,0,0
321088,116.87,-543.748,0,0
322390,114.472,-540.169,0,0
323691,111.845,-536.928,0,0
324993,108.933,-533.264,0,0
326295,107.015,-529.743,0,0
327596,104.736,-527.382,0,0
328898,101.501,-525.026,0,0
330200,98.0289,-522.293,0,0
331501.125,94.3022,-519.621,0,0
332802.75,89.9127,-516.703,0,0
334104.375,84.8061,-512.739,0,0
335406.0,80.1777,-507.695,0,0
336707.625,75.8432,-501.859,0,0
338009.25,72.4143,-495.327,0,0
339310.875,69.8289,-488.653,0,0
340612.5,67.8185,-481.767,0,0
341914.125,66.7174,-474.755,0,0
343215.75,66.5962,-467.935,0,0
344517.375,67.4231,-461.779,0,0
345819.0,68.6997,-456.699,0,0
347121,69.5174,-452.711,0,0
348422,69.2569,-448.932,0,0
349724,68.6121,-444.287,0,0
351025,68.2279,-438.982,0,0
352327,69.0609,-432.967,0,0
353629,71.2318,-427.768,0,0
354930,73.7442,-423.783,0,0
356232,76.2406,-421.358,0,0
357534,76.6717,-419.651,0,0
358835,75.8246,-416.676,0,0
360137,75.4251,-411.998,0,0
361438,76.3574,-406.787,0,0
362740.1,78.387,-402.11,0,0
364041.725,80.7746,-397.86,0,0
365343.35,84.095,-394.047,0,0
366644.975,87.5231,-391.873,0,0
367946.6,90.2901,-390.204,0,0
369248.225,92.8624,-389.217,0,0
370549.85,94.3694,-389.446,0,0
371851.475,93.4036,-388.952,0,0
373153.1,92.4056,-385.879,0,0
374454.725,93.0514,-382.118,0,0
375756.35,94.5293,-378.904,0,0
377057.975,95.6736,-376.258,0,0
378359.6,96.7433,-372.692,0,0
379661,99.0842,-369.058,0,0
380963,101.696,-366.143,0,0
382264,104.264,-363.344,0,0
383566,107.42,-360.641,0,0
384868,110.91,-358.589,0,0
386169,113.879,-357.026,0,0
387471,116.901,-355.231,0,0
388773,119.962,-352.927,0,0
390074,124.785,-350.853,0,0
391376,129.683,-350.438,0,0
392677,133.92,-350.469,0,0
393979,137.975,-350.43,0,0
395280.7,142.733,-349.798,0,0
396582.325,149.491,-349.797,0,0
397883.95,157.925,-352.617,0,0
399185.575,165.99,-359.471,0,0
400006.6,169.655,-366.15,0,0

File: sample_8.csv
Frequency (Hz),Impedance (ohms),Phase (Radians),Temperature (C),Humidity (%)
10000.0,311.99,-10933.8,0,0
11301.625,276.727,-9690.17,0,0
12603.25,254.553,-8701.9,0,0
13904.875,225.864,-7903.36,0,0
15206.5,205.902,-7232.24,0,0
16508.125,189.638,-6667.75,0,0
17809.75,175.923,-6183.17,0,0
19111.375,168.175,-5762.04,0,0
20413.0,161.083,-5401.33,0,0
21714.625,151.162,-5082.95,0,0
23016.25,144.143,-4801.08,0,0
24317.875,133.067,-4544.51,0,0
25619.5,125.78,-4312.84,0,0
26921.1,120.442,-4102.45,0,0
28222.7,117.496,-3913.2,0,0
29524.4,114.306,-3741.01,0,0
30826,109.451,-3584.1,0,0
32127.6,105.724,-3436.62,0,0
33429.2,105.357,-3300.23,0,0
34730.9,105.993,-3175.82,0,0
36032.5,108.867,-3065.15,0,0
37334.1,105.881,-2965.64,0,0
38635.7,96.3255,-2869.45,0,0
39937.4,88.4773,-2773.27,0,0
41239,85.5812,-2682.84,0,0
42540.6,82.7099,-2598.36,0,0
43842.225,81.6582,-2521.04,0,0
45143.85,78.0759,-2446.66,0,0
46445.475,75.0994,-2375.91,0,0
47747.1,73.1363,-2308.82,0,0
49048.725,71.0919,-2245.55,0,0
50350.35,69.2801,-2184.81,0,0
51651.975,68.2859,-2127,0,0
52953.6,67.7695,-2072.58,0,0
54255.225,66.7407,-2022.53,0,0
55556.85,63.6745,-1973.38,0,0
56858.475,61.5458,-1924.7,0,0
58160.1,60.5751,-1878.32,0,0
59461.7,59.9021,-1834.56,0,0
60763.3,58.5347,-1792.04,0,0
62065,58.2019,-1751.24,0,0
63366.6,58.3346,-1711.67,0,0
64668.2,59.0927,-1675.31,0,0
65969.8,58.2952,-1640.7,0,0
67271.5,56.1782,-1606.23,0,0
68573.1,55.3296,-1572.35,0,0
69874.7,55.1246,-1539.32,0,0
71176.3,55.0256,-1507.87,0,0
72478,55.1877,-1478.19,0,0
73779.6,54.4627,-1449.24,0,0
75081.2,53.6407,-1420.81,0,0
76382.825,53.3836,-1392.98,0,0
77684.45,53.0093,-1366.3,0,0
78986.075,52.3647,-1340.06,0,0
80287.7,51.9984,-1313.97,0,0
81589.325,52.0408,-1288.27,0,0
82890.95,52.9479,-1263.37,0,0
84192.575,54.2409,-1239.63,0,0
85494.2,55.0788,-1218.06,0,0
86795.825,54.5853,-1194.97,0,0
88097.45,55.38,-1172.55,0,0
89399.075,56.24,-1150.24,0,0
90700.7,58.183,-1127.78,0,0
92002.3,62.5299,-1106.9,0,0
93303.9,66.2669,-1089.13,0,0
94605.6,66.1023,-1071.46,0,0
95907.2,67.9699,-1051.76,0,0
97208.8,71.7293,-1032.68,0,0
98510.4,76.5484,-1015.48,0,0
99812.1,81.2355,-1001.42,0,0
101114,84.9387,-988.527,0,0
102415,86.5331,-977.01,0,0
103717,85.5543,-965.081,0,0
105019,84.9792,-951.666,0,0
106320.175,84.3746,-937.299,0,0
107621.8,84.6015,-923.773,0,0
108923.425,83.9111,-909.589,0,0
110225.05,85.0756,-895.459,0,0
111526.675,85.659,-882.635,0,0
112828.3,86.136,-870.381,0,0
114129.925,85.9435,-858.554,0,0
115431.55,85.4295,-846.48,0,0
116733.175,83.532,-834.07,0,0
118034.8,82.989,-820.629,0,0
119336.425,82.37,-807.979,0,0
120638.05,81.0468,-794.869,0,0
121939.675,80.3313,-781.307,0,0
123241,79.8498,-767.78,0,0
124543,79.5362,-753.664,0,0
125845,79.8624,-739.752,0,0
127146,80.8857,-725.822,0,0
128448,81.9837,-712.505,0,0
129749,83.1141,-699.361,0,0
131051,84.1155,-685.648,0,0
132353,85.6544,-672.916,0,0
133654,86.4284,-659.689,0,0
134956,87.8843,-645.681,0,0
136258,90.9487,-632.543,0,0
137559,91.3713,-621.119,0,0
138860.775,90.7161,-605.869,0,0
140162.4,92.7319,-589.761,0,0
141464.025,95.6062,-573.79,0,0
142765.65,98.7563,-557.054,0,0
144067.275,103.573,-539.377,0,0
145368.9,110.541,-520.789,0,0
146670.525,120.215,-503.469,0,0
147972.15,130.347,-487.998,0,0
149273.775,142.523,-469.418,0,0
150575.4,161.222,-453.33,0,0
151877.025,185.868,-446.482,0,0
153178.65,201.509,-449.606,0,0
154480,208.194,-451.018,0,0
155782,219.394,-444.624,0,0
157084,223.983,-452.634,0,0
158385,220.958,-442.251,0,0
159687,233.32,-435.245,0,0
160988,232.418,-433.532,0,0
162290,239.524,-419.084,0,0
163592,252.894,-414.811,0,0
164893,261.101,-414.901,0,0
166195,262.348,-420.414,0,0
167497,251.689,-414.014,0,0
168798,248.082,-399.499,0,0
170100,249.286,-380.878,0,0
171401.375,251.705,-362.326,0,0
172703.0,262.913,-338.166,0,0
174004.625,279.196,-322.373,0,0
175306.25,285.959,-309.173,0,0
176607.875,297.496,-281.194,0,0
177909.5,319.552,-255.865,0,0
179211.125,349.68,-229.656,0,0
180512.75,392.613,-210.325,0,0
181814.375,438.496,-205.925,0,0
183116.0,480.611,-214.262,0,0
184417.625,508.657,-225.36,0,0
185719.25,537.081,-227.709,0,0
187021,571.4,-232.439,0,0
188322,608.109,-238.224,0,0
189624,643.689,-255.332,0,0
190926,677.576,-261.701,0,0
192227,725.784,-280.324,0,0
193529,775.319,-296.845,0,0
194831,847.506,-341.052,0,0
196132,903.569,-415.304,0,0
197434,932.632,-517.427,0,0
198735,921.96,-617.974,0,0
200037,889.695,-709.352,0,0
201339,832.154,-778.076,0,0
202640.35,757.285,-832.735,0,0
203941.975,685.963,-841.158,0,0
205243.6,631.72,-842.538,0,0
206545.225,578.853,-826.458,0,0
207846.85,560.42,-798.964,0,0
209148.475,552.308,-792.103,0,0
210450.1,544.423,-786.284,0,0
211751.725,541.173,-786.748,0,0
213053.35,539.372,-795.412,0,0
214354.975,532.721,-810.009,0,0
215656.6,519.152,-828.483,0,0
216958.225,496.389,-842.614,0,0
218259.85,472.11,-850.802,0,0
219561,448.364,-854.279,0,0
220863,423.846,-854.106,0,0
222165,404.008,-846.526,0,0
223466,391.558,-840.624,0,0
224768,383.085,-838.37,0,0
226070,374.324,-844.202,0,0
227371,357.119,-851.725,0,0
228673,335.469,-854.061,0,0
229974,315.18,-853.734,0,0
231276,291.652,-851.973,0,0
232578,268.142,-844.939,0,0
233879,245.501,-834.352,0,0
235180.95,224.937,-818.567,0,0
236482.575,210.233,-799.606,0,0
237784.2,200.838,-781.019,0,0
239085.825,196.297,-763.562,0,0
240387.45,194.95,-752.189,0,0
241689.075,190.586,-744.407,0,0
242990.7,183.021,-734.778,0,0
244292.325,177.376,-722.574,0,0
245593.95,174.202,-711.458,0,0
246895.575,171.784,-700.81,0,0
248197.2,168.969,-691.761,0,0
249498.825,165.546,-680.97,0,0
250800,164.415,-668.561,0,0
252102,167.723,-657.13,0,0
253404,172.386,-651.322,0,0
254705,172.525,-647.201,0,0
256007,171.309,-640.973,0,0
257309,170.868,-632.76,0,0
258610,173.13,-623.595,0,0
259912,178.39,-615.739,0,0
261213,184.447,-610.949,0,0
262515,190.032,-608.312,0,0
263817,193.411,-605.877,0,0
265118,197.076,-600.523,0,0
266420,206.619,-593.68,0,0
267721.55,224.214,-592.296,0,0
269023.175,243.597,-604.365,0,0
270324.8,253.642,-627.14,0,0
271626.425,251.767,-654.107,0,0
272928.05,236.815,-678.649,0,0
274229.675,210.908,-693.647,0,0
275531.3,183.777,-694.256,0,0
276832.925,163.385,-686.538,0,0
278134.55,148.75,-676.638,0,0
279436.175,137.432,-665.302,0,0
280737.8,131.532,-653.189,0,0
282039.425,129.45,-644.031,0,0
283341,127.874,-638.563,0,0
284643,124.431,-633.258,0,0
285944,123.203,-626.292,0,0
287246,126.031,-623.215,0,0
288548,125.559,-627.278,0,0
289849,117.657,-630.254,0,0
291151,107.681,-628.083,0,0
292452,98.989,-623.529,0,0
293754,91.3441,-617.257,0,0
295056,84.7245,-609.789,0,0
296357,80.1262,-601.652,0,0
297659,76.4727,-594.083,0,0
298960.525,73.4498,-586.192,0,0
300262.15,71.5433,-578.071,0,0
301563.775,71.2902,-570.251,0,0
302865.4,72.2049,-563.719,0,0
304167.025,73.4719,-558.578,0,0
305468.65,74.6165,-554.496,0,0
306770.275,75.5276,-551.409,0,0
308071.9,76.0168,-549.025,0,0
309373.525,75.4428,-547.822,0,0
310675.15,73.4729,-545.793,0,0
311976.775,71.5402,-543.245,0,0
313278.4,69.3449,-540.68,0,0
314580,66.7064,-537.528,0,0
315882,64.2099,-533.775,0,0
317183,62.5128,-529.472,0,0
318485,61.3259,-525.465,0,0
319787,60.6822,-521.863,0,0
321088,59.8374,-519.141,0,0
322390,58.3645,-516.629,0,0
323691,56.5447,-514.028,0,0
324993,54.0375,-511.029,0,0
326295,51.5188,-507.306,0,0
327596,49.5372,-503.054,0,0
328898,47.9149,-498.877,0,0
330200,46.5044,-494.561,0,0
331501.125,45.3127,-490.317,0,0
332802.75,44.3287,-485.983,0,0
334104.375,43.8049,-481.573,0,0
335406.0,43.699,-477.56,0,0
336707.625,43.5657,-473.938,0,0
338009.25,43.4003,-470.635,0,0
339310.875,42.9981,-467.44,0,0
340612.5,42.338,-464.391,0,0
341914.125,41.3894,-461.002,0,0
343215.75,40.6738,-457.261,0,0
344517.375,40.0925,-453.419,0,0
345819.0,39.7928,-449.496,0,0
347121,39.8528,-445.52,0,0
348422,40.2002,-441.767,0,0
349724,40.7346,-438.193,0,0
351025,41.465,-434.865,0,0
352327,42.1872,-431.889,0,0
353629,42.9459,-429.179,0,0
354930,43.4477,-426.637,0,0
356232,43.9047,-424.15,0,0
357534,44.2172,-421.735,0,0
358835,44.4396,-419.214,0,0
360137,44.777,-416.805,0,0
361438,45.0443,-414.412,0,0
362740.1,45.2614,-412.014,0,0
364041.725,45.514,-409.617,0,0
365343.35,45.8817,-407.125,0,0
366644.975,46.315,-404.854,0,0
367946.6,46.6371,-402.657,0,0
369248.225,47.1032,-400.274,0,0
370549.85,48.1229,-398.118,0,0
371851.475,48.9218,-396.777,0,0
373153.1,49.1859,-395.669,0,0
374454.725,48.8579,-394.431,0,0
375756.35,48.3167,-392.639,0,0
377057.975,48.2768,-390.52,0,0
378359.6,48.3363,-389.145,0,0
379661,47.5589,-387.475,0,0
380963,47.4197,-385.003,0,0
382264,47.9298,-383.67,0,0
383566,47.0695,-382.752,0,0
384868,45.6378,-381.066,0,0
386169,44.3592,-378.673,0,0
387471,43.3051,-375.828,0,0
388773,42.7694,-372.693,0,0
390074,42.7827,-369.731,0,0
391376,42.8438,-367.159,0,0
392677,42.7878,-364.616,0,0
393979,42.6223,-362.004,0,0
395280.7,42.6084,-359.184,0,0
396582.325,42.8565,-356.382,0,0
397883.95,43.2156,-353.781,0,0
399185.575,43.5544,-351.251,0,0
400006.6,43.7394,-349.695,0,0