Folder: ML_Dmg_Mehdi_Dataset/Accelerated corrosion test data/2025-10-12_06-00-03 (part 4)

File: sample_8.csv
Frequency (Hz),Impedance (ohms),Phase (Radians),Temperature (C),Humidity (%)
10000.0,311.658,-10959.2,0,0
11301.625,276.276,-9712.09,0,0
12603.25,254.504,-8722.28,0,0
13904.875,225.638,-7921.47,0,0
15206.5,205.532,-7248.4,0,0
16508.125,189.732,-6682.63,0,0
17809.75,176.175,-6196.38,0,0
19111.375,168.183,-5775.35,0,0
20413.0,160.024,-5413.08,0,0
21714.625,150.548,-5092.98,0,0
23016.25,144.717,-4809.59,0,0
24317.875,134.338,-4552.9,0,0
25619.5,127.677,-4321.13,0,0
26921.1,122.307,-4110.12,0,0
28222.7,119.131,-3919.52,0,0
29524.4,117.208,-3746.6,0,0
30826,116.104,-3589.39,0,0
32127.6,114.079,-3444.47,0,0
33429.2,116.347,-3310.09,0,0
34730.9,113.248,-3194.55,0,0
36032.5,105.366,-3084.57,0,0
37334.1,97.9542,-2977.15,0,0
38635.7,91.0154,-2875.27,0,0
39937.4,85.8219,-2778.48,0,0
41239,83.8046,-2687.7,0,0
42540.6,81.5089,-2602.58,0,0
43842.225,80.9117,-2524.59,0,0
45143.85,78.0302,-2450.38,0,0
46445.475,75.3127,-2379.45,0,0
47747.1,74.2703,-2312.19,0,0
49048.725,72.2424,-2249.47,0,0
50350.35,70.3296,-2188.61,0,0
51651.975,69.6252,-2130.54,0,0
52953.6,69.1334,-2076.25,0,0
54255.225,67.8938,-2026.16,0,0
55556.85,64.7984,-1976.76,0,0
56858.475,62.6276,-1927.65,0,0
58160.1,61.9214,-1880.94,0,0
59461.7,61.6909,-1837.2,0,0
60763.3,60.2891,-1794.38,0,0
62065,60.1399,-1753.52,0,0
63366.6,60.8132,-1713.73,0,0
64668.2,62.318,-1677.93,0,0
65969.8,60.9547,-1643.64,0,0
67271.5,58.751,-1609.1,0,0
68573.1,57.8069,-1574.96,0,0
69874.7,57.6408,-1541.71,0,0
71176.3,57.8838,-1510.2,0,0
72478,58.0214,-1480.71,0,0
73779.6,57.2866,-1451.41,0,0
75081.2,56.7143,-1422.87,0,0
76382.825,56.7187,-1394.79,0,0
77684.45,56.5982,-1368.12,0,0
78986.075,56.2196,-1341.58,0,0
80287.7,56.3992,-1315.49,0,0
81589.325,56.8563,-1289.77,0,0
82890.95,58.4332,-1265.16,0,0
84192.575,60.1992,-1241.76,0,0
85494.2,61.1837,-1220.63,0,0
86795.825,60.9941,-1197.55,0,0
88097.45,62.6337,-1175.06,0,0
89399.075,64.7721,-1153.46,0,0
90700.7,67.8571,-1132.05,0,0
92002.3,72.8191,-1113.79,0,0
93303.9,75.2458,-1098.84,0,0
94605.6,74.2143,-1081,0,0
95907.2,76.3166,-1063.59,0,0
97208.8,78.3722,-1046.55,0,0
98510.4,80.8614,-1031.61,0,0
99812.1,80.5692,-1017.85,0,0
101114,81.0072,-1003.29,0,0
102415,79.7899,-989.275,0,0
103717,78.2498,-973.21,0,0
105019,78.1357,-957.506,0,0
106320.175,78.9309,-941.167,0,0
107621.8,80.58,-927.245,0,0
108923.425,80.5472,-912.903,0,0
110225.05,81.5215,-898.766,0,0
111526.675,81.9251,-885.459,0,0
112828.3,82.5063,-872.1,0,0
114129.925,82.8103,-859.3,0,0
115431.55,82.8077,-846.27,0,0
116733.175,82.2504,-833.289,0,0
118034.8,82.6863,-819.4,0,0
119336.425,83.5426,-806.818,0,0
120638.05,83.013,-794.201,0,0
121939.675,83.1564,-781.083,0,0
123241,83.3977,-768.389,0,0
124543,83.3376,-754.975,0,0
125845,84.079,-742.038,0,0
127146,84.7411,-729.015,0,0
128448,85.1883,-716.214,0,0
129749,85.67,-703.128,0,0
131051,86.8289,-689.83,0,0
132353,87.4286,-677.27,0,0
133654,87.909,-663.737,0,0
134956,89.1226,-648.889,0,0
136258,92.6763,-635.387,0,0
137559,93.8643,-623.953,0,0
138860.775,93.7075,-609.448,0,0
140162.4,95.4472,-594.035,0,0
141464.025,98.0203,-578.236,0,0
142765.65,101.01,-562.087,0,0
144067.275,104.933,-544.795,0,0
145368.9,111.469,-525.846,0,0
146670.525,121.111,-508.907,0,0
147972.15,130.923,-494.394,0,0
149273.775,140.674,-475.52,0,0
150575.4,158.483,-458.043,0,0
151877.025,182.701,-449.506,0,0
153178.65,198.22,-451.947,0,0
154480,206.26,-450.851,0,0
155782,217.143,-444.412,0,0
157084,224.511,-452.516,0,0
158385,220.547,-442.951,0,0
159687,231.96,-433.688,0,0
160988,234.006,-431.162,0,0
162290,240.834,-416.786,0,0
163592,256.218,-410.368,0,0
164893,266.799,-412.047,0,0
166195,268.388,-418.914,0,0
167497,259.525,-415.077,0,0
168798,253.492,-401.653,0,0
170100,252.43,-382.432,0,0
171401.375,254.984,-360.545,0,0
172703.0,266.631,-332.642,0,0
174004.625,286.757,-313.753,0,0
175306.25,303.479,-299.268,0,0
176607.875,319.497,-277.3,0,0
177909.5,347.069,-256.295,0,0
179211.125,382.978,-241.327,0,0
180512.75,419.528,-236.347,0,0
181814.375,452.166,-236.231,0,0
183116.0,486.004,-240.548,0,0
184417.625,509.408,-245.815,0,0
185719.25,537.387,-241.439,0,0
187021,577.785,-241.205,0,0
188322,622.304,-247.962,0,0
189624,665.946,-273.684,0,0
190926,696.506,-292.39,0,0
192227,742.928,-315.57,0,0
193529,783.55,-339.403,0,0
194831,850.14,-383.938,0,0
196132,903.578,-464.2,0,0
197434,922.515,-572.874,0,0
198735,896.669,-676.497,0,0
200037,848.973,-760.413,0,0
201339,776.256,-818.152,0,0
202640.35,702.581,-852.808,0,0
203941.975,631.718,-854.294,0,0
205243.6,582.34,-844.123,0,0
206545.225,538.811,-828.229,0,0
207846.85,516.269,-803.907,0,0
209148.475,504.396,-788.6,0,0
210450.1,498.232,-777.656,0,0
211751.725,497.214,-774.487,0,0
213053.35,493.634,-780.732,0,0
214354.975,482.006,-789.184,0,0
215656.6,466.095,-793.11,0,0
216958.225,450.029,-789.496,0,0
218259.85,444.231,-784.305,0,0
219561,440.035,-783.817,0,0
220863,439.322,-788.009,0,0
222165,435.261,-797.206,0,0
223466,426.92,-810.601,0,0
224768,414.973,-821.937,0,0
226070,398.141,-837.406,0,0
227371,373.364,-846.814,0,0
228673,347.312,-847.334,0,0
229974,326.996,-846.189,0,0
231276,303.575,-845.065,0,0
232578,279.11,-839.192,0,0
233879,256.333,-828.142,0,0
235180.95,236.963,-812.935,0,0
236482.575,222.929,-795.649,0,0
237784.2,213.886,-778.745,0,0
239085.825,209.27,-764.013,0,0
240387.45,206.965,-755.218,0,0
241689.075,199.89,-749.998,0,0
242990.7,189.338,-741.447,0,0
244292.325,180.315,-729.332,0,0
245593.95,174.13,-716.278,0,0
246895.575,170.359,-703.434,0,0
248197.2,167.157,-692.657,0,0
249498.825,162.96,-680.38,0,0
250800,161.691,-665.656,0,0
252102,165.65,-651.416,0,0
253404,172.75,-643.54,0,0
254705,175.229,-639.029,0,0
256007,176.503,-632.267,0,0
257309,179.408,-624.842,0,0
258610,184.066,-618.052,0,0
259912,190.172,-612.979,0,0
261213,196.382,-610.599,0,0
262515,202.044,-610.227,0,0
263817,204.93,-610.708,0,0
265118,206.81,-608.589,0,0
266420,212.712,-604.467,0,0
267721.55,224.597,-603.631,0,0
269023.175,238.887,-611.733,0,0
270324.8,247.607,-628.879,0,0
271626.425,247.915,-650.689,0,0
272928.05,237.254,-672.235,0,0
274229.675,217.364,-688.529,0,0
275531.3,192,-693.164,0,0
276832.925,171.452,-688.303,0,0
278134.55,155.525,-680.776,0,0
279436.175,142.137,-670.978,0,0
280737.8,133.608,-658.594,0,0
282039.425,129.966,-647.791,0,0
283341,128.597,-640.502,0,0
284643,125.863,-634.538,0,0
285944,125.31,-627.295,0,0
287246,128.664,-624.391,0,0
288548,128.61,-628.532,0,0
289849,120.993,-631.519,0,0
291151,112.102,-629.941,0,0
292452,103.528,-626.832,0,0
293754,95.0925,-621.514,0,0
295056,87.7197,-614.598,0,0
296357,82.1422,-606.5,0,0
297659,78.0354,-598.787,0,0
298960.525,74.5678,-590.971,0,0
300262.15,72.0688,-582.887,0,0
301563.775,71.0935,-574.754,0,0
302865.4,71.5379,-567.899,0,0
304167.025,72.1895,-562.31,0,0
305468.65,72.997,-557.407,0,0
306770.275,73.991,-553.535,0,0
308071.9,74.6358,-550.529,0,0
309373.525,74.7393,-548.837,0,0
310675.15,73.111,-546.899,0,0
311976.775,71.3091,-544.372,0,0
313278.4,69.3028,-541.644,0,0
314580,66.7929,-538.615,0,0
315882,64.4874,-534.756,0,0
317183,62.6999,-530.443,0,0
318485,61.726,-526.405,0,0
319787,61.1299,-522.648,0,0
321088,60.5871,-519.875,0,0
322390,59.308,-517.346,0,0
323691,57.7342,-514.893,0,0
324993,55.4544,-512.161,0,0
326295,52.9986,-508.698,0,0
327596,50.9699,-504.834,0,0
328898,49.1695,-500.86,0,0
330200,47.5153,-496.851,0,0
331501.125,46.0309,-492.557,0,0
332802.75,44.7973,-488.018,0,0
334104.375,44.1419,-483.402,0,0
335406.0,44.0933,-479.122,0,0
336707.625,44.2323,-475.383,0,0
338009.25,44.2057,-472.157,0,0
339310.875,43.8286,-469.194,0,0
340612.5,43.2441,-466.095,0,0
341914.125,42.4251,-462.936,0,0
343215.75,41.6621,-459.472,0,0
344517.375,41.0316,-455.768,0,0
345819.0,40.5969,-452.067,0,0
347121,40.4834,-448.245,0,0
348422,40.6522,-444.621,0,0
349724,40.9446,-441.179,0,0
351025,41.358,-437.937,0,0
352327,41.7911,-434.895,0,0
353629,42.2827,-432.023,0,0
354930,42.7102,-429.381,0,0
356232,43.0308,-426.954,0,0
357534,43.0442,-424.69,0,0
358835,42.8157,-422.143,0,0
360137,42.6271,-419.414,0,0
361438,42.5277,-416.566,0,0
362740.1,42.4926,-413.713,0,0
364041.725,42.6602,-410.697,0,0
365343.35,43.086,-407.685,0,0
366644.975,43.7743,-405.063,0,0
367946.6,44.2266,-402.614,0,0
369248.225,44.7169,-399.909,0,0
370549.85,45.7196,-397.268,0,0
371851.475,46.8865,-395.312,0,0
373153.1,47.6178,-393.774,0,0
374454.725,48.0201,-392.236,0,0
375756.35,48.2363,-390.564,0,0
377057.975,48.6167,-388.819,0,0
378359.6,48.8869,-387.623,0,0
379661,48.3095,-386.064,0,0
380963,48.4312,-383.745,0,0
382264,49.1648,-382.676,0,0
383566,48.4526,-382.072,0,0
384868,47.0381,-380.602,0,0
386169,45.7147,-378.275,0,0
387471,44.7598,-375.495,0,0
388773,44.224,-372.523,0,0
390074,44.2392,-369.643,0,0
391376,44.2631,-367.117,0,0
392677,44.2758,-364.604,0,0
393979,44.2966,-362,0,0
395280.7,44.424,-359.35,0,0
396582.325,44.8171,-356.731,0,0
397883.95,45.2434,-354.464,0,0
399185.575,45.4228,-352.259,0,0
400006.6,45.4587,-350.796,0,0