Folder: ML_Dmg_Mehdi_Dataset/Accelerated corrosion test data/2025-10-11_06-00-04 (part 3)

File: sample_6.csv
Frequency (Hz),Impedance (ohms),Phase (Radians),Temperature (C),Humidity (%)
10000.0,4226.43,-6511.56,0,0
11301.625,3598.33,-6138.17,0,0
12603.25,3098.46,-5779.75,0,0
13904.875,2693,-5449.97,0,0
15206.5,2361.12,-5141.75,0,0
16508.125,2087.73,-4859.76,0,0
17809.75,1858.92,-4601.34,0,0
19111.375,1667.82,-4363.88,0,0
20413.0,1504.48,-4149.68,0,0
21714.625,1363.79,-3950.33,0,0
23016.25,1246.49,-3765.39,0,0
24317.875,1141.34,-3603.51,0,0
25619.5,1048.78,-3448.96,0,0
26921.1,968.459,-3305.44,0,0
28222.7,897.739,-3173.38,0,0
29524.4,834.065,-3048.35,0,0
30826,780.7,-2933.83,0,0
32127.6,732.139,-2825.31,0,0
33429.2,693.722,-2728.45,0,0
34730.9,650.407,-2639.68,0,0
36032.5,610.992,-2555.21,0,0
37334.1,575.252,-2470.43,0,0
38635.7,544.256,-2390.18,0,0
39937.4,519.775,-2313.95,0,0
41239,497.632,-2246.7,0,0
42540.6,474.132,-2184.42,0,0
43842.225,452.779,-2119.14,0,0
45143.85,438.358,-2059.94,0,0
46445.475,425.63,-2008.67,0,0
47747.1,409.515,-1961.9,0,0
49048.725,392.497,-1917.63,0,0
50350.35,371.338,-1874.58,0,0
51651.975,352.188,-1827.82,0,0
52953.6,336.343,-1782.23,0,0
54255.225,320.386,-1738.7,0,0
55556.85,306.761,-1694.78,0,0
56858.475,295.761,-1650.13,0,0
58160.1,289.846,-1609.37,0,0
59461.7,284.891,-1572.74,0,0
60763.3,280.309,-1539.63,0,0
62065,271.988,-1512.62,0,0
63366.6,264.993,-1476.64,0,0
64668.2,259.453,-1451.18,0,0
65969.8,249.503,-1422.08,0,0
67271.5,242.509,-1392.17,0,0
68573.1,237.873,-1364.04,0,0
69874.7,233.733,-1338.51,0,0
71176.3,228.369,-1315.63,0,0
72478,220.652,-1291.87,0,0
73779.6,214.64,-1267.18,0,0
75081.2,209.994,-1243.32,0,0
76382.825,205.179,-1221.11,0,0
77684.45,200.067,-1199.58,0,0
78986.075,194.934,-1178.11,0,0
80287.7,189.855,-1157.17,0,0
81589.325,184.552,-1136.04,0,0
82890.95,179.983,-1114.68,0,0
84192.575,175.936,-1093.6,0,0
85494.2,172.807,-1072.03,0,0
86795.825,171.492,-1051.27,0,0
88097.45,170.757,-1031.79,0,0
89399.075,171.56,-1013.71,0,0
90700.7,172.279,-998.885,0,0
92002.3,169.051,-985.695,0,0
93303.9,165.328,-968.848,0,0
94605.6,164.18,-951.564,0,0
95907.2,164.213,-936.877,0,0
97208.8,162.642,-924.198,0,0
98510.4,159.154,-909.032,0,0
99812.1,159.118,-894.076,0,0
101114,159.162,-882.452,0,0
102415,156.264,-870.918,0,0
103717,152.94,-860.001,0,0
105019,146.418,-848.871,0,0
106320.175,137.448,-832.445,0,0
107621.8,133.834,-811.287,0,0
108923.425,135.314,-792.163,0,0
110225.05,137.888,-774.494,0,0
111526.675,142.885,-758.328,0,0
112828.3,149.45,-747.281,0,0
114129.925,152.817,-737.909,0,0
115431.55,156.917,-728.311,0,0
116733.175,161.506,-725.612,0,0
118034.8,153.484,-723.273,0,0
119336.425,145.921,-710.392,0,0
120638.05,145.126,-694.882,0,0
121939.675,146.109,-686.696,0,0
123241,142.671,-675.696,0,0
124543,141.325,-664.512,0,0
125845,138.915,-653.473,0,0
127146,136.227,-641.105,0,0
128448,135.447,-626.665,0,0
129749,137.286,-614.544,0,0
131051,136.97,-603.693,0,0
132353,136.367,-591.409,0,0
133654,136.958,-578.696,0,0
134956,137.791,-565.927,0,0
136258,139.344,-552.72,0,0
137559,142.686,-539.806,0,0
138860.775,146.144,-528.428,0,0
140162.4,149.875,-517.125,0,0
141464.025,154.713,-506.736,0,0
142765.65,157.779,-498.719,0,0
144067.275,159.496,-489.27,0,0
145368.9,162.211,-478.736,0,0
146670.525,165.288,-469.767,0,0
147972.15,166.066,-461.388,0,0
149273.775,165.805,-449.68,0,0
150575.4,167.689,-435.975,0,0
151877.025,171.634,-421.146,0,0
153178.65,180.396,-408.468,0,0
154480,186.867,-400.218,0,0
155782,191.498,-388.81,0,0
157084,199.765,-379.685,0,0
158385,204.083,-372.646,0,0
159687,207.234,-362.978,0,0
160988,211.189,-352.013,0,0
162290,215.712,-340.68,0,0
163592,221.146,-327.896,0,0
164893,227.385,-315.924,0,0
166195,234.215,-302.791,0,0
167497,241.866,-289.719,0,0
168798,250.937,-276.209,0,0
170100,260.192,-263.578,0,0
171401.375,269.062,-250.203,0,0
172703.0,278.291,-235.445,0,0
174004.625,288.112,-218.845,0,0
175306.25,300.008,-199.31,0,0
176607.875,315.696,-177.574,0,0
177909.5,336.397,-154.618,0,0
179211.125,363.591,-132.477,0,0
180512.75,395.038,-115.038,0,0
181814.375,427.8,-99.3541,0,0
183116.0,463.996,-86.166,0,0
184417.625,501.247,-73.5617,0,0
185719.25,544.146,-59.0918,0,0
187021,597.536,-46.2106,0,0
188322,662.264,-41.2472,0,0
189624,735.745,-49.663,0,0
190926,813.519,-75.6879,0,0
192227,886.891,-119.147,0,0
193529,956.101,-174.777,0,0
194831,1021.99,-247.378,0,0
196132,1075.83,-340.789,0,0
197434,1108.24,-451.069,0,0
198735,1111.16,-568.746,0,0
200037,1086.94,-682.053,0,0
201339,1038.63,-786.188,0,0
202640.35,968.44,-872.3,0,0
203941.975,886.633,-934.427,0,0
205243.6,802.125,-974.163,0,0
206545.225,721.66,-995.451,0,0
207846.85,647.287,-1002.59,0,0
209148.475,580.862,-999.075,0,0
210450.1,522.718,-988.809,0,0
211751.725,471.404,-973.89,0,0
213053.35,427.177,-954.77,0,0
214354.975,388.833,-935.251,0,0
215656.6,354.388,-913.316,0,0
216958.225,325.613,-890.475,0,0
218259.85,300.564,-867.25,0,0
219561,279.239,-843.498,0,0
220863,261.603,-819.263,0,0
222165,248.162,-795.072,0,0
223466,239.181,-771.598,0,0
224768,234.577,-750.491,0,0
226070,232.791,-734.265,0,0
227371,229.584,-722.087,0,0
228673,223.763,-710.408,0,0
229974,217.569,-697.081,0,0
231276,212.896,-682.733,0,0
232578,209.924,-668.015,0,0
233879,208.8,-653.467,0,0
235180.95,209.654,-639.552,0,0
236482.575,212.106,-626.827,0,0
237784.2,216.057,-615.303,0,0
239085.825,221.219,-605.166,0,0
240387.45,227.463,-596.712,0,0
241689.075,234.137,-589.989,0,0
242990.7,241.223,-584.543,0,0
244292.325,249.713,-580.188,0,0
245593.95,259.384,-579.205,0,0
246895.575,267.538,-581.354,0,0
248197.2,274.382,-585.28,0,0
249498.825,279.602,-589.639,0,0
250800,286.261,-594.764,0,0
252102,292.111,-605.156,0,0
253404,293.948,-617.834,0,0
254705,291.887,-632.526,0,0
256007,283.937,-646.82,0,0
257309,271.885,-657.793,0,0
258610,258.016,-664.92,0,0
259912,243.679,-668.925,0,0
261213,229.566,-670.355,0,0
262515,216.046,-669.58,0,0
263817,203.614,-667.187,0,0
265118,191.903,-663.616,0,0
266420,181.37,-659.127,0,0
267721.55,171.664,-654.128,0,0
269023.175,162.765,-648.741,0,0
270324.8,154.543,-642.952,0,0
271626.425,146.988,-636.899,0,0
272928.05,140.102,-630.498,0,0
274229.675,133.964,-624.117,0,0
275531.3,128.203,-617.624,0,0
276832.925,123.026,-611.033,0,0
278134.55,118.339,-604.485,0,0
279436.175,114.058,-597.791,0,0
280737.8,110.702,-590.909,0,0
282039.425,108.199,-584.787,0,0
283341,105.523,-579.231,0,0
284643,103.015,-573.524,0,0
285944,101.317,-567.976,0,0
287246,99.7999,-563.66,0,0
288548,97.4168,-559.616,0,0
289849,94.9254,-555.162,0,0
291151,92.7307,-550.666,0,0
292452,90.7033,-546.363,0,0
293754,88.5081,-542.408,0,0
295056,85.8654,-538.358,0,0
296357,83.1328,-533.684,0,0
297659,80.9738,-528.366,0,0
298960.525,79.9753,-523.23,0,0
300262.15,79.1038,-519.291,0,0
301563.775,77.6535,-515.501,0,0
302865.4,76.2236,-511.477,0,0
304167.025,74.8781,-507.382,0,0
305468.65,73.8237,-503.45,0,0
306770.275,72.7963,-499.917,0,0
308071.9,71.4854,-496.504,0,0
309373.525,70.1335,-492.931,0,0
310675.15,68.8564,-489.37,0,0
311976.775,67.5729,-485.871,0,0
313278.4,66.2171,-482.292,0,0
314580,64.9734,-478.7,0,0
315882,63.9002,-475.078,0,0
317183,62.8343,-471.496,0,0
318485,61.7391,-468.04,0,0
319787,60.726,-464.429,0,0
321088,59.8633,-460.909,0,0
322390,59.0908,-457.394,0,0
323691,58.3611,-454.053,0,0
324993,57.6332,-450.812,0,0
326295,56.7948,-447.621,0,0
327596,55.9919,-444.321,0,0
328898,55.1881,-440.998,0,0
330200,54.4879,-437.666,0,0
331501.125,53.872,-434.356,0,0
332802.75,53.3351,-431.034,0,0
334104.375,52.9164,-427.775,0,0
335406.0,52.5271,-424.59,0,0
336707.625,52.1658,-421.535,0,0
338009.25,51.7668,-418.494,0,0
339310.875,51.4169,-415.419,0,0
340612.5,51.1103,-412.336,0,0
341914.125,50.889,-409.285,0,0
343215.75,50.8546,-406.327,0,0
344517.375,50.7327,-403.695,0,0
345819.0,50.376,-400.953,0,0
347121,50.0803,-398.002,0,0
348422,49.9929,-395.065,0,0
349724,50.0132,-392.233,0,0
351025,50.1248,-389.462,0,0
352327,50.2711,-386.839,0,0
353629,50.4109,-384.406,0,0
354930,50.5193,-382.07,0,0
356232,50.4853,-379.792,0,0
357534,50.3679,-377.532,0,0
358835,50.2697,-375.225,0,0
360137,50.1454,-372.923,0,0
361438,49.9104,-370.741,0,0
362740.1,49.6329,-368.355,0,0
364041.725,49.4211,-365.926,0,0
365343.35,49.2607,-363.474,0,0
366644.975,49.2001,-361.019,0,0
367946.6,49.1942,-358.696,0,0
369248.225,49.1279,-356.373,0,0
370549.85,49.0988,-354.048,0,0
371851.475,49.2132,-351.763,0,0
373153.1,49.3646,-349.608,0,0
374454.725,49.3601,-347.763,0,0
375756.35,48.9511,-345.822,0,0
377057.975,48.5024,-343.646,0,0
378359.6,48.1466,-341.325,0,0
379661,47.8141,-338.879,0,0
380963,47.4664,-336.367,0,0
382264,47.408,-333.647,0,0
383566,47.693,-331.164,0,0
384868,47.7058,-329.123,0,0
386169,47.4729,-326.76,0,0
387471,47.2896,-324.352,0,0
388773,47.2102,-321.834,0,0
390074,47.169,-319.315,0,0
391376,47.144,-316.785,0,0
392677,47.1714,-314.219,0,0
393979,47.1927,-311.596,0,0
395280.7,47.2765,-308.984,0,0
396582.325,47.3964,-306.309,0,0
397883.95,47.5814,-303.635,0,0
399185.575,47.8209,-300.909,0,0
400006.6,47.9866,-299.198,0,0

File: sample_7.csv
Frequency (Hz),Impedance (ohms),Phase (Radians),Temperature (C),Humidity (%)
10000.0,273.564,-12090.6,0,0
11301.625,246.928,-10696.6,0,0
12603.25,257.681,-9639.92,0,0
13904.875,210.475,-8749.8,0,0
15206.5,194.357,-8014.42,0,0
16508.125,171.498,-7373.14,0,0
17809.75,171.437,-6817.8,0,0
19111.375,180.826,-6373.85,0,0
20413.0,168.13,-5983.65,0,0
21714.625,155.688,-5641.25,0,0
23016.25,130.377,-5317.47,0,0
24317.875,123.09,-5024.77,0,0
25619.5,119.276,-4760.56,0,0
26921.1,123.999,-4515.4,0,0
28222.7,181.07,-4313.44,0,0
29524.4,137.032,-4169.19,0,0
30826,133.967,-3987.02,0,0
32127.6,117.867,-3841.93,0,0
33429.2,101.934,-3690.73,0,0
34730.9,92.8253,-3545.89,0,0
36032.5,88.8929,-3412.01,0,0
37334.1,86.519,-3288.76,0,0
38635.7,86.8704,-3171.58,0,0
39937.4,97.6018,-3071.3,0,0
41239,86.8324,-2983.76,0,0
42540.6,80.405,-2887.68,0,0
43842.225,79.5246,-2798.97,0,0
45143.85,80.6322,-2721.32,0,0
46445.475,77.5361,-2649.38,0,0
47747.1,71.177,-2572.83,0,0
49048.725,68.4084,-2502.57,0,0
50350.35,66.3284,-2435.52,0,0
51651.975,64.7043,-2371.93,0,0
52953.6,63.8056,-2311.33,0,0
54255.225,62.5626,-2254.55,0,0
55556.85,61.4905,-2199.76,0,0
56858.475,60.5789,-2147.42,0,0
58160.1,59.8994,-2096.95,0,0
59461.7,60.2604,-2049.56,0,0
60763.3,59.4507,-2005.79,0,0
62065,57.3592,-1962.5,0,0
63366.6,56.2522,-1919.57,0,0
64668.2,55.4148,-1879.06,0,0
65969.8,55.3456,-1840.48,0,0
67271.5,53.6915,-1803.64,0,0
68573.1,52.5786,-1766.94,0,0
69874.7,52.1194,-1731.61,0,0
71176.3,51.8731,-1698.15,0,0
72478,50.6383,-1665.9,0,0
73779.6,49.8896,-1634.03,0,0
75081.2,49.3892,-1603.2,0,0
76382.825,48.7738,-1573.37,0,0
77684.45,48.5697,-1544.6,0,0
78986.075,48.1786,-1516.61,0,0
80287.7,48.1037,-1489.47,0,0
81589.325,47.7408,-1463.11,0,0
82890.95,47.5609,-1437.52,0,0
84192.575,47.5762,-1412.38,0,0
85494.2,47.8205,-1388.3,0,0
86795.825,47.7482,-1364.86,0,0
88097.45,47.9443,-1342.18,0,0
89399.075,47.7062,-1319.79,0,0
90700.7,47.9414,-1297.63,0,0
92002.3,48.4393,-1276.06,0,0
93303.9,49.0008,-1255.26,0,0
94605.6,50.5083,-1235.42,0,0
95907.2,50.5579,-1217.1,0,0
97208.8,50.0164,-1197.68,0,0
98510.4,50.9668,-1178.31,0,0
99812.1,50.5496,-1159.49,0,0
101114,52.0993,-1140.6,0,0
102415,53.6702,-1122.46,0,0
103717,56.4512,-1105.87,0,0
105019,57.3082,-1090.7,0,0
106320.175,57.0239,-1074.43,0,0
107621.8,58.0794,-1058.29,0,0
108923.425,59.0837,-1042.18,0,0
110225.05,59.518,-1025.55,0,0
111526.675,62.5613,-1008.67,0,0
112828.3,66.8973,-992.687,0,0
114129.925,71.8367,-978.745,0,0
115431.55,77.5287,-965.726,0,0
116733.175,85.3186,-956.992,0,0
118034.8,88.7352,-951.088,0,0
119336.425,91.5027,-948.142,0,0
120638.05,85.3449,-947.202,0,0
121939.675,75.8125,-936.975,0,0
123241,68.5702,-924.208,0,0
124543,64.5574,-909.533,0,0
125845,60.5948,-895.936,0,0
127146,57.4119,-880.957,0,0
128448,55.8949,-866.291,0,0
129749,54.5318,-851.769,0,0
131051,53.3853,-837.339,0,0
132353,52.8004,-822.047,0,0
133654,53.3573,-806.477,0,0
134956,56.1449,-791.46,0,0
136258,61.379,-778.57,0,0
137559,62.2835,-770.759,0,0
138860.775,60.4203,-758.881,0,0
140162.4,60.9228,-745.453,0,0
141464.025,60.9638,-732.314,0,0
142765.65,62.2504,-718.292,0,0
144067.275,64.8028,-705.418,0,0
145368.9,66.2491,-692.99,0,0
146670.525,67.2756,-679.868,0,0
147972.15,69.12,-666.617,0,0
149273.775,69.5467,-653.559,0,0
150575.4,70.4383,-637.628,0,0
151877.025,73.0965,-620.254,0,0
153178.65,78.0921,-602.436,0,0
154480,84.9521,-584.443,0,0
155782,94.345,-567.035,0,0
157084,106.274,-551.345,0,0
158385,119.605,-539.207,0,0
159687,128.239,-531.051,0,0
160988,131.371,-516.229,0,0
162290,141.697,-492.17,0,0
163592,161.208,-468.818,0,0
164893,187.537,-450.819,0,0
166195,217.006,-431.948,0,0
167497,262.415,-419.521,0,0
168798,317.501,-425.749,0,0
170100,364.754,-456.171,0,0
171401.375,397.856,-503.385,0,0
172703.0,411.212,-564.162,0,0
174004.625,383.879,-619.41,0,0
175306.25,341.669,-634.859,0,0
176607.875,321.302,-624.902,0,0
177909.5,331.948,-626.513,0,0
179211.125,329.954,-663.805,0,0
180512.75,299.613,-685.457,0,0
181814.375,259.08,-700.461,0,0
183116.0,216.45,-689.407,0,0
184417.625,187.179,-667.279,0,0
185719.25,168.489,-644.259,0,0
187021,154.806,-617.152,0,0
188322,151.851,-592.49,0,0
189624,146.093,-575.345,0,0
190926,139.796,-553.08,0,0
192227,138.9,-528.318,0,0
193529,141.676,-503.208,0,0
194831,148.372,-478.566,0,0
196132,159.937,-456.819,0,0
197434,172.787,-438.039,0,0
198735,184.474,-420.355,0,0
200037,197.689,-400.463,0,0
201339,215.683,-379.581,0,0
202640.35,240.655,-359.086,0,0
203941.975,271.133,-343.08,0,0
205243.6,307.261,-332.932,0,0
206545.225,347.842,-335.852,0,0
207846.85,375.996,-346.178,0,0
209148.475,409.106,-345.36,0,0
210450.1,460.62,-361.705,0,0
211751.725,496.582,-408.079,0,0
213053.35,510.128,-457.474,0,0
214354.975,508.011,-499.608,0,0
215656.6,496.345,-532.961,0,0
216958.225,487.577,-565.08,0,0
218259.85,463.043,-591.988,0,0
219561,431.785,-607.797,0,0
220863,402.607,-604.243,0,0
222165,386.93,-590.493,0,0
223466,384.362,-578.335,0,0
224768,386.464,-570.516,0,0
226070,397.866,-561.584,0,0
227371,415.717,-566.115,0,0
228673,434.199,-582.333,0,0
229974,443.145,-608.582,0,0
231276,441.865,-642.801,0,0
232578,428.791,-673.81,0,0
233879,401.481,-705.033,0,0
235180.95,358.47,-719.615,0,0
236482.575,323.398,-710.969,0,0
237784.2,296.887,-703.002,0,0
239085.825,272.102,-682.711,0,0
240387.45,269.159,-663.052,0,0
241689.075,263.23,-658.39,0,0
242990.7,249.426,-648.048,0,0
244292.325,242.067,-629.037,0,0
245593.95,248.192,-614.417,0,0
246895.575,252.111,-609.621,0,0
248197.2,252.907,-604.353,0,0
249498.825,255.45,-598.879,0,0
250800,259.364,-595.986,0,0
252102,263.977,-595.484,0,0
253404,267.108,-600.106,0,0
254705,264.214,-607.058,0,0
256007,256.352,-610.662,0,0
257309,246.704,-609.809,0,0
258610,238.422,-603.425,0,0
259912,233.914,-596.293,0,0
261213,231.27,-585.914,0,0
262515,236.126,-574.684,0,0
263817,247.634,-571.043,0,0
265118,255.346,-576.02,0,0
266420,258.221,-579.836,0,0
267721.55,262.314,-586.053,0,0
269023.175,261.724,-593.502,0,0
270324.8,262.187,-597.922,0,0
271626.425,266.947,-606.278,0,0
272928.05,270.064,-628.875,0,0
274229.675,251.181,-657.365,0,0
275531.3,215.058,-670.752,0,0
276832.925,178.461,-662.704,0,0
278134.55,152.448,-640.864,0,0
279436.175,140.859,-616.875,0,0
280737.8,137.554,-596.371,0,0
282039.425,137.237,-583.079,0,0
283341,133.632,-569.504,0,0
284643,134.401,-553.408,0,0
285944,139.646,-540.2,0,0
287246,145.873,-531.666,0,0
288548,149.31,-524.759,0,0
289849,152.989,-515.994,0,0
291151,159.355,-507.07,0,0
292452,167.228,-500.901,0,0
293754,175.25,-495.892,0,0
295056,183.881,-491.189,0,0
296357,194.847,-487.629,0,0
297659,208.454,-487.024,0,0
298960.525,222.046,-490.978,0,0
300262.15,235.804,-497.907,0,0
301563.775,250.629,-510.197,0,0
302865.4,263.141,-533.782,0,0
304167.025,258.986,-563.523,0,0
305468.65,243.559,-585.412,0,0
306770.275,222.947,-599.483,0,0
308071.9,201.504,-604.867,0,0
309373.525,181.752,-604.159,0,0
310675.15,165.914,-598.813,0,0
311976.775,153.869,-592.568,0,0
313278.4,143.578,-586.037,0,0
314580,134.514,-578.443,0,0
315882,128.145,-569.718,0,0
317183,124.34,-562.206,0,0
318485,121.064,-555.885,0,0
319787,118.701,-549.831,0,0
321088,117.19,-545.048,0,0
322390,115.492,-541.523,0,0
323691,112.924,-538.586,0,0
324993,109.953,-534.911,0,0
326295,107.875,-531.391,0,0
327596,105.558,-528.711,0,0
328898,102.589,-526.115,0,0
330200,99.4492,-523.329,0,0
331501.125,96.0627,-520.643,0,0
332802.75,92.0124,-517.959,0,0
334104.375,87.1184,-514.389,0,0
335406.0,82.4905,-509.679,0,0
336707.625,78.1174,-504.084,0,0
338009.25,74.6459,-497.735,0,0
339310.875,72.0266,-491.182,0,0
340612.5,70.1033,-484.595,0,0
341914.125,68.8131,-477.964,0,0
343215.75,68.4082,-471.419,0,0
344517.375,68.8553,-465.409,0,0
345819.0,69.604,-460.274,0,0
347121,70.2503,-456.005,0,0
348422,70.2442,-452.102,0,0
349724,69.6665,-447.547,0,0
351025,69.2754,-442.546,0,0
352327,69.9677,-436.833,0,0
353629,71.6284,-431.852,0,0
354930,73.6595,-427.813,0,0
356232,75.6444,-425.131,0,0
357534,75.8595,-422.901,0,0
358835,75.206,-419.508,0,0
360137,75.1628,-414.721,0,0
361438,76.3289,-409.629,0,0
362740.1,78.595,-405.219,0,0
364041.725,81.0349,-401.435,0,0
365343.35,83.9354,-398.185,0,0
366644.975,86.6758,-396.172,0,0
367946.6,88.8749,-394.432,0,0
369248.225,90.9391,-393.126,0,0
370549.85,92.0561,-392.9,0,0
371851.475,90.9827,-391.804,0,0
373153.1,90.1434,-388.467,0,0
374454.725,90.6727,-384.544,0,0
375756.35,91.995,-380.876,0,0
377057.975,93.5033,-377.784,0,0
378359.6,95.0504,-374.205,0,0
379661,97.5229,-370.726,0,0
380963,100.17,-368.017,0,0
382264,102.633,-365.275,0,0
383566,105.695,-362.699,0,0
384868,108.871,-360.657,0,0
386169,111.67,-358.943,0,0
387471,114.548,-357.054,0,0
388773,117.587,-354.644,0,0
390074,122.164,-352.547,0,0
391376,126.79,-351.905,0,0
392677,130.978,-351.481,0,0
393979,135.262,-351.093,0,0
395280.7,140.292,-350.578,0,0
396582.325,146.955,-351.009,0,0
397883.95,154.613,-354.155,0,0
399185.575,161.352,-360.771,0,0
400006.6,164.144,-366.598,0,0