Folder: ML_Dmg_Mehdi_Dataset/Accelerated corrosion test data/2025-10-10_18-00-03 (part 4)

File: sample_8.csv
Frequency (Hz),Impedance (ohms),Phase (Radians),Temperature (C),Humidity (%)
10000.0,313.024,-10943.9,0,0
11301.625,276.978,-9698.43,0,0
12603.25,254.802,-8709.52,0,0
13904.875,225.957,-7910.05,0,0
15206.5,205.754,-7238.25,0,0
16508.125,190.138,-6673.09,0,0
17809.75,177.078,-6188.01,0,0
19111.375,168.222,-5767.25,0,0
20413.0,160.317,-5405.34,0,0
21714.625,151.073,-5085.6,0,0
23016.25,144.818,-4803.48,0,0
24317.875,134.618,-4547.05,0,0
25619.5,127.197,-4315.14,0,0
26921.1,122.32,-4104.42,0,0
28222.7,119.315,-3914.37,0,0
29524.4,117.051,-3741.36,0,0
30826,115.483,-3584.21,0,0
32127.6,113.681,-3439.57,0,0
33429.2,115.653,-3305.45,0,0
34730.9,113.138,-3189.52,0,0
36032.5,105.803,-3079.81,0,0
37334.1,98.1511,-2972.75,0,0
38635.7,91.3063,-2871.09,0,0
39937.4,86.2438,-2774.45,0,0
41239,84.1754,-2684.23,0,0
42540.6,81.8879,-2599,0,0
43842.225,81.2556,-2521.06,0,0
45143.85,78.0935,-2446.94,0,0
46445.475,75.6617,-2376.18,0,0
47747.1,74.277,-2309.27,0,0
49048.725,72.2506,-2246.29,0,0
50350.35,70.431,-2185.4,0,0
51651.975,69.6781,-2127.54,0,0
52953.6,69.3518,-2073.26,0,0
54255.225,67.9979,-2023.32,0,0
55556.85,64.9381,-1973.9,0,0
56858.475,62.8564,-1924.99,0,0
58160.1,62.0321,-1878.3,0,0
59461.7,61.8935,-1834.65,0,0
60763.3,60.3538,-1791.96,0,0
62065,60.2682,-1751.02,0,0
63366.6,60.9218,-1711.3,0,0
64668.2,62.2082,-1675.43,0,0
65969.8,61.0034,-1641.36,0,0
67271.5,58.7658,-1606.8,0,0
68573.1,57.8961,-1572.61,0,0
69874.7,57.8329,-1539.46,0,0
71176.3,58.0673,-1508.01,0,0
72478,58.2815,-1478.67,0,0
73779.6,57.4552,-1449.41,0,0
75081.2,56.8141,-1420.86,0,0
76382.825,56.8854,-1392.84,0,0
77684.45,56.6838,-1366.15,0,0
78986.075,56.3526,-1339.69,0,0
80287.7,56.5268,-1313.61,0,0
81589.325,56.9787,-1287.98,0,0
82890.95,58.5767,-1263.36,0,0
84192.575,60.3343,-1240.06,0,0
85494.2,61.2485,-1218.99,0,0
86795.825,61.1575,-1195.83,0,0
88097.45,62.7696,-1173.34,0,0
89399.075,64.8746,-1151.79,0,0
90700.7,68.1341,-1130.59,0,0
92002.3,72.8878,-1112.39,0,0
93303.9,75.2014,-1097.55,0,0
94605.6,74.2471,-1079.57,0,0
95907.2,76.2732,-1062.14,0,0
97208.8,78.2543,-1045.18,0,0
98510.4,80.7014,-1030.16,0,0
99812.1,80.4325,-1016.36,0,0
101114,80.8645,-1001.83,0,0
102415,79.6432,-987.74,0,0
103717,78.2868,-971.644,0,0
105019,78.1958,-956.039,0,0
106320.175,79.0287,-939.845,0,0
107621.8,80.5901,-925.907,0,0
108923.425,80.5903,-911.682,0,0
110225.05,81.5925,-897.542,0,0
111526.675,81.8865,-884.215,0,0
112828.3,82.3974,-871.012,0,0
114129.925,82.6979,-858.241,0,0
115431.55,82.542,-845.33,0,0
116733.175,82.0218,-832.264,0,0
118034.8,82.2374,-818.392,0,0
119336.425,82.9925,-805.718,0,0
120638.05,82.3873,-792.94,0,0
121939.675,82.5316,-779.71,0,0
123241,82.7475,-766.879,0,0
124543,82.7977,-753.338,0,0
125845,83.6994,-740.271,0,0
127146,84.5133,-727.305,0,0
128448,85.0824,-714.56,0,0
129749,85.3893,-701.655,0,0
131051,86.6529,-688.108,0,0
132353,87.2837,-675.638,0,0
133654,87.9443,-661.931,0,0
134956,89.3292,-647.294,0,0
136258,92.859,-633.961,0,0
137559,93.9932,-622.65,0,0
138860.775,93.6974,-608.09,0,0
140162.4,95.4199,-592.75,0,0
141464.025,97.9068,-576.87,0,0
142765.65,100.868,-560.627,0,0
144067.275,104.809,-543.199,0,0
145368.9,111.508,-524.16,0,0
146670.525,121.351,-507.358,0,0
147972.15,131.105,-493.065,0,0
149273.775,140.82,-474.403,0,0
150575.4,158.353,-456.859,0,0
151877.025,182.403,-448.47,0,0
153178.65,197.527,-450.467,0,0
154480,205.419,-448.993,0,0
155782,216.673,-442.229,0,0
157084,223.744,-450.235,0,0
158385,220.317,-439.506,0,0
159687,233.012,-430.495,0,0
160988,235.005,-427.778,0,0
162290,242.806,-413.977,0,0
163592,258.486,-408.666,0,0
164893,268.631,-410.971,0,0
166195,269.57,-418.061,0,0
167497,260.395,-413.661,0,0
168798,254.177,-399.576,0,0
170100,253.508,-380.348,0,0
171401.375,256.465,-358.178,0,0
172703.0,268.845,-330.566,0,0
174004.625,288.993,-311.481,0,0
175306.25,306.188,-297.14,0,0
176607.875,323.198,-275.848,0,0
177909.5,350.282,-255.827,0,0
179211.125,386.193,-240.951,0,0
180512.75,422.447,-236.169,0,0
181814.375,455.338,-236.037,0,0
183116.0,488.989,-240.081,0,0
184417.625,513.222,-245.07,0,0
185719.25,542.041,-241.658,0,0
187021,582.929,-242.884,0,0
188322,627.321,-250.819,0,0
189624,670.266,-277.156,0,0
190926,700.753,-297.075,0,0
192227,746.175,-320.21,0,0
193529,788.05,-344.968,0,0
194831,853.53,-393.353,0,0
196132,903.429,-476.074,0,0
197434,917.02,-583.922,0,0
198735,889.054,-685.419,0,0
200037,837.97,-765.985,0,0
201339,766.276,-819.604,0,0
202640.35,693.292,-852.077,0,0
203941.975,624.227,-851.925,0,0
205243.6,576.265,-841.46,0,0
206545.225,533.729,-824.71,0,0
207846.85,512.129,-800.493,0,0
209148.475,500.231,-784.894,0,0
210450.1,494.79,-773.477,0,0
211751.725,494.458,-769.576,0,0
213053.35,492.025,-775.162,0,0
214354.975,482.29,-784,0,0
215656.6,466.684,-788.862,0,0
216958.225,451.396,-785.475,0,0
218259.85,446.284,-780.69,0,0
219561,443.056,-781.501,0,0
220863,441.962,-786.712,0,0
222165,438.18,-797.068,0,0
223466,428.667,-811.433,0,0
224768,416.147,-823.359,0,0
226070,398.435,-838.764,0,0
227371,372.908,-847.855,0,0
228673,346.163,-847.696,0,0
229974,325.89,-846.29,0,0
231276,302.135,-844.879,0,0
232578,277.777,-838.259,0,0
233879,255.485,-827.034,0,0
235180.95,236.161,-811.839,0,0
236482.575,222.548,-794.522,0,0
237784.2,213.714,-777.927,0,0
239085.825,208.952,-763.338,0,0
240387.45,206.412,-754.799,0,0
241689.075,199.017,-749.094,0,0
242990.7,188.728,-740.197,0,0
244292.325,179.889,-728.053,0,0
245593.95,173.651,-714.975,0,0
246895.575,170.23,-701.748,0,0
248197.2,167.434,-691.056,0,0
249498.825,163.537,-679.146,0,0
250800,162.051,-664.656,0,0
252102,166.135,-650.254,0,0
253404,173.422,-642.606,0,0
254705,175.909,-638.214,0,0
256007,177.216,-631.402,0,0
257309,180.364,-624.126,0,0
258610,185.213,-617.607,0,0
259912,191.36,-613.037,0,0
261213,197.215,-610.96,0,0
262515,202.566,-610.781,0,0
263817,205.171,-610.99,0,0
265118,207.244,-608.705,0,0
266420,213.457,-604.741,0,0
267721.55,225.495,-604.424,0,0
269023.175,239.464,-613.123,0,0
270324.8,247.828,-630.746,0,0
271626.425,247.092,-652.91,0,0
272928.05,235.436,-674.194,0,0
274229.675,214.824,-689.297,0,0
275531.3,189.83,-693.081,0,0
276832.925,169.529,-687.856,0,0
278134.55,153.75,-680.1,0,0
279436.175,140.663,-669.962,0,0
280737.8,132.557,-657.669,0,0
282039.425,129.014,-647.002,0,0
283341,127.708,-639.719,0,0
284643,125.141,-633.7,0,0
285944,124.677,-626.644,0,0
287246,127.859,-623.934,0,0
288548,127.4,-627.903,0,0
289849,119.837,-630.517,0,0
291151,111.248,-628.648,0,0
292452,102.937,-625.578,0,0
293754,94.6448,-620.313,0,0
295056,87.3994,-613.419,0,0
296357,81.9336,-605.458,0,0
297659,77.8372,-597.812,0,0
298960.525,74.4224,-590.053,0,0
300262.15,71.9449,-582.023,0,0
301563.775,71.0212,-574.022,0,0
302865.4,71.4378,-567.241,0,0
304167.025,72.0796,-561.695,0,0
305468.65,72.8394,-556.861,0,0
306770.275,73.7427,-553.021,0,0
308071.9,74.3511,-550.027,0,0
309373.525,74.3455,-548.32,0,0
310675.15,72.7143,-546.26,0,0
311976.775,70.9583,-543.719,0,0
313278.4,68.9134,-541.032,0,0
314580,66.4669,-537.974,0,0
315882,64.1188,-534.087,0,0
317183,62.3593,-529.751,0,0
318485,61.3755,-525.701,0,0
319787,60.821,-522.069,0,0
321088,60.2088,-519.277,0,0
322390,58.9497,-516.659,0,0
323691,57.4051,-514.163,0,0
324993,55.0825,-511.538,0,0
326295,52.719,-507.994,0,0
327596,50.6285,-504.055,0,0
328898,48.8744,-500.068,0,0
330200,47.2197,-496,0,0
331501.125,45.711,-491.691,0,0
332802.75,44.6128,-487.187,0,0
334104.375,44.0076,-482.612,0,0
335406.0,43.9763,-478.462,0,0
336707.625,44.1043,-474.725,0,0
338009.25,44.0961,-471.537,0,0
339310.875,43.686,-468.529,0,0
340612.5,43.1469,-465.456,0,0
341914.125,42.3229,-462.262,0,0
343215.75,41.5445,-458.741,0,0
344517.375,40.9407,-455.119,0,0
345819.0,40.5145,-451.438,0,0
347121,40.3454,-447.65,0,0
348422,40.5181,-443.991,0,0
349724,40.8402,-440.54,0,0
351025,41.2426,-437.285,0,0
352327,41.6569,-434.29,0,0
353629,42.1388,-431.434,0,0
354930,42.5792,-428.772,0,0
356232,42.9032,-426.365,0,0
357534,42.8823,-424.071,0,0
358835,42.6544,-421.516,0,0
360137,42.4708,-418.786,0,0
361438,42.3945,-415.893,0,0
362740.1,42.4361,-413.008,0,0
364041.725,42.6032,-409.978,0,0
365343.35,43.129,-407.006,0,0
366644.975,43.8364,-404.439,0,0
367946.6,44.2612,-401.965,0,0
369248.225,44.7922,-399.308,0,0
370549.85,45.8303,-396.701,0,0
371851.475,46.9842,-394.81,0,0
373153.1,47.7584,-393.311,0,0
374454.725,48.045,-391.854,0,0
375756.35,48.1975,-390.176,0,0
377057.975,48.5209,-388.433,0,0
378359.6,48.7498,-387.183,0,0
379661,48.1959,-385.651,0,0
380963,48.368,-383.27,0,0
382264,49.0032,-382.277,0,0
383566,48.2909,-381.648,0,0
384868,46.8363,-380.098,0,0
386169,45.5225,-377.716,0,0
387471,44.5972,-374.923,0,0
388773,44.1497,-371.911,0,0
390074,44.1709,-369.061,0,0
391376,44.2266,-366.562,0,0
392677,44.2215,-364.09,0,0
393979,44.2455,-361.514,0,0
395280.7,44.3505,-358.854,0,0
396582.325,44.7382,-356.286,0,0
397883.95,45.1084,-354.021,0,0
399185.575,45.2502,-351.782,0,0
400006.6,45.296,-350.266,0,0