Folder: ML_Dmg_Mehdi_Dataset/Accelerated corrosion test data/2025-10-01_18-00-03

Note: README.md
# ML_Dmg_Mehdi_Dataset

File: sample_1.csv
Frequency (Hz),Impedance (ohms),Phase (Radians),Temperature (C),Humidity (%)
10000.0,271.253,-12108.2,0,0
11301.625,236.464,-10726.1,0,0
12603.25,227.86,-9634.32,0,0
13904.875,229.804,-8715.29,0,0
15206.5,200.009,-7997.06,0,0
16508.125,187.275,-7368.72,0,0
17809.75,175.105,-6838.29,0,0
19111.375,162.639,-6371.64,0,0
20413.0,179.971,-5937.59,0,0
21714.625,147.129,-5624.39,0,0
23016.25,143.364,-5317.59,0,0
24317.875,127.689,-5027.97,0,0
25619.5,114.177,-4767.08,0,0
26921.1,125.042,-4523.27,0,0
28222.7,117.972,-4318.47,0,0
29524.4,112.32,-4151.48,0,0
30826,108.928,-3967.79,0,0
32127.6,103.767,-3810.19,0,0
33429.2,90.6036,-3667.37,0,0
34730.9,87.0549,-3526.88,0,0
36032.5,79.8743,-3397.24,0,0
37334.1,76.5868,-3275.77,0,0
38635.7,76.2057,-3163.31,0,0
39937.4,78.492,-3057.29,0,0
41239,77.2112,-2959.41,0,0
42540.6,73.7982,-2868.23,0,0
43842.225,73.104,-2780.54,0,0
45143.85,73.0095,-2700.09,0,0
46445.475,67.9754,-2624.86,0,0
47747.1,64.8,-2552.02,0,0
49048.725,62.5401,-2482.25,0,0
50350.35,60.8897,-2416.01,0,0
51651.975,60.0693,-2352.74,0,0
52953.6,59.1587,-2292.36,0,0
54255.225,59.765,-2235.81,0,0
55556.85,57.1641,-2180.85,0,0
56858.475,57.0765,-2128.39,0,0
58160.1,56.6583,-2078.14,0,0
59461.7,56.0404,-2030.65,0,0
60763.3,55.5752,-1985.17,0,0
62065,54.0195,-1941.37,0,0
63366.6,53.2818,-1897.96,0,0
64668.2,53.9245,-1856.51,0,0
65969.8,56.9196,-1818.76,0,0
67271.5,55.4302,-1781.88,0,0
68573.1,54.5788,-1747.05,0,0
69874.7,53.2707,-1713.51,0,0
71176.3,51.692,-1679.29,0,0
72478,50.366,-1645.76,0,0
73779.6,49.1374,-1612.35,0,0
75081.2,49.7947,-1580.56,0,0
76382.825,50.6435,-1549.84,0,0
77684.45,51.6345,-1520.18,0,0
78986.075,53.0564,-1493.19,0,0
80287.7,53.0387,-1466.53,0,0
81589.325,52.8191,-1439.39,0,0
82890.95,52.7069,-1412.27,0,0
84192.575,54.4376,-1386.67,0,0
85494.2,56.2299,-1362.66,0,0
86795.825,57.9358,-1339,0,0
88097.45,57.929,-1316.37,0,0
89399.075,58.9173,-1292.14,0,0
90700.7,63.3276,-1268.68,0,0
92002.3,69.5178,-1248.18,0,0
93303.9,77.2269,-1232.28,0,0
94605.6,74.979,-1224.12,0,0
95907.2,67.2892,-1205.82,0,0
97208.8,64.5314,-1184.72,0,0
98510.4,64.2432,-1164.61,0,0
99812.1,64.1489,-1144.28,0,0
101114,64.3411,-1125.25,0,0
102415,64.4476,-1102.98,0,0
103717,68.9652,-1081.88,0,0
105019,76.4047,-1064.33,0,0
106320.175,83.6985,-1049.16,0,0
107621.8,89.8578,-1038.13,0,0
108923.425,94.5798,-1028.46,0,0
110225.05,95.0363,-1020.11,0,0
111526.675,93.9748,-1008.89,0,0
112828.3,94.791,-998.862,0,0
114129.925,92.5532,-990.196,0,0
115431.55,87.9892,-979.359,0,0
116733.175,83.5017,-965.334,0,0
118034.8,80.4322,-949.588,0,0
119336.425,80.3755,-933.691,0,0
120638.05,81.7374,-919.585,0,0
121939.675,81.3117,-907.667,0,0
123241,79.7366,-893.279,0,0
124543,80.0464,-878.648,0,0
125845,81.1237,-864.371,0,0
127146,82.2451,-850.539,0,0
128448,84.7347,-835.852,0,0
129749,88.0103,-822.342,0,0
131051,92.9657,-810.389,0,0
132353,96.4887,-800.503,0,0
133654,98.9236,-790.889,0,0
134956,100.316,-780.433,0,0
136258,102.78,-769.58,0,0
137559,106.237,-759.317,0,0
138860.775,108.449,-751.935,0,0
140162.4,108.409,-742.914,0,0
141464.025,109.274,-732.267,0,0
142765.65,110.645,-722.507,0,0
144067.275,110.723,-711.848,0,0
145368.9,112.659,-699.923,0,0
146670.525,115.512,-689.076,0,0
147972.15,117.982,-679.486,0,0
149273.775,119.344,-669.134,0,0
150575.4,121.249,-658.951,0,0
151877.025,121.185,-646.618,0,0
153178.65,123.496,-632.184,0,0
154480,126.833,-615.76,0,0
155782,136.379,-599.314,0,0
157084,148.613,-585.779,0,0
158385,160.834,-576.483,0,0
159687,173.624,-565.986,0,0
160988,191.924,-558.145,0,0
162290,208.774,-558.468,0,0
163592,223.03,-561.991,0,0
164893,233.824,-566.718,0,0
166195,243.417,-577.438,0,0
167497,243.907,-589.176,0,0
168798,237.75,-597.511,0,0
170100,228.132,-598.683,0,0
171401.375,222.473,-594.635,0,0
172703.0,216.685,-589.994,0,0
174004.625,213.373,-581.5,0,0
175306.25,215.016,-575.191,0,0
176607.875,215.219,-571.547,0,0
177909.5,213.865,-567.74,0,0
179211.125,211.792,-565.288,0,0
180512.75,205.648,-561.531,0,0
181814.375,198.697,-553.716,0,0
183116.0,191.711,-541.402,0,0
184417.625,188.975,-526.464,0,0
185719.25,188.636,-511.401,0,0
187021,190.526,-495.745,0,0
188322,193.435,-480.948,0,0
189624,198.566,-464.548,0,0
190926,205.152,-449.282,0,0
192227,212.427,-433.92,0,0
193529,220.248,-416.635,0,0
194831,231.253,-397.88,0,0
196132,246.824,-378.827,0,0
197434,267.452,-360.685,0,0
198735,289.753,-346.239,0,0
200037,314.679,-331.131,0,0
201339,347.05,-316.838,0,0
202640.35,386.492,-309.187,0,0
203941.975,431.773,-310.213,0,0
205243.6,480.463,-329.115,0,0
206545.225,516.475,-363.72,0,0
207846.85,535.506,-403.862,0,0
209148.475,539.957,-440.299,0,0
210450.1,533.524,-465.134,0,0
211751.725,526.283,-475.349,0,0
213053.35,533.215,-477.067,0,0
214354.975,548.281,-485.356,0,0
215656.6,561.975,-501.791,0,0
216958.225,573.627,-513.644,0,0
218259.85,593.141,-530.342,0,0
219561,615.674,-553.138,0,0
220863,638.496,-588.133,0,0
222165,654.184,-635.523,0,0
223466,656.207,-693.114,0,0
224768,639.571,-750.76,0,0
226070,606.909,-803.021,0,0
227371,561.9,-841.304,0,0
228673,513.83,-866.047,0,0
229974,464.675,-877.906,0,0
231276,420.625,-877.222,0,0
232578,385.659,-871.374,0,0
233879,355.311,-864.253,0,0
235180.95,328.553,-856.401,0,0
236482.575,304.276,-846.434,0,0
237784.2,283.561,-837.315,0,0
239085.825,262.573,-827.898,0,0
240387.45,242.69,-815.341,0,0
241689.075,226.698,-801.455,0,0
242990.7,213.859,-788.385,0,0
244292.325,202.216,-776.627,0,0
245593.95,190.599,-764.705,0,0
246895.575,180.214,-752.116,0,0
248197.2,171.287,-739.368,0,0
249498.825,163.624,-726.609,0,0
250800,157.064,-714.117,0,0
252102,151.405,-701.648,0,0
253404,146.526,-689.028,0,0
254705,143.426,-675.828,0,0
256007,142.036,-663.511,0,0
257309,141.748,-651.616,0,0
258610,142.833,-640.528,0,0
259912,145.54,-629.926,0,0
261213,150.066,-621.174,0,0
262515,155.207,-614.825,0,0
263817,161.316,-610.332,0,0
265118,167.463,-609.986,0,0
266420,170.838,-613.466,0,0
267721.55,168.654,-618.927,0,0
269023.175,160.866,-620.919,0,0
270324.8,152.145,-617.386,0,0
271626.425,145.625,-610.138,0,0
272928.05,142.729,-601.465,0,0
274229.675,142.532,-593.84,0,0
275531.3,143.749,-587.676,0,0
276832.925,145.554,-582.695,0,0
278134.55,147.846,-579.708,0,0
279436.175,149.88,-578.699,0,0
280737.8,149.344,-579.536,0,0
282039.425,146.388,-579.316,0,0
283341,142.135,-577.705,0,0
284643,137.999,-574.746,0,0
285944,133.189,-570.425,0,0
287246,128.832,-564.04,0,0
288548,126.363,-555.117,0,0
289849,128.094,-547.003,0,0
291151,130.224,-541.491,0,0
292452,132.2,-536.825,0,0
293754,133.364,-532.698,0,0
295056,134.064,-526.873,0,0
296357,137.895,-519.77,0,0
297659,143.844,-515.49,0,0
298960.525,149.909,-512.764,0,0
300262.15,156.558,-511.957,0,0
301563.775,162.772,-512.679,0,0
302865.4,168.491,-515.342,0,0
304167.025,173.291,-519.699,0,0
305468.65,176.071,-524.791,0,0
306770.275,178.014,-530.629,0,0
308071.9,178.693,-537.498,0,0
309373.525,176.632,-545.057,0,0
310675.15,172.555,-551.935,0,0
311976.775,166.794,-558.102,0,0
313278.4,158.77,-562.659,0,0
314580,150.103,-564.855,0,0
315882,141.553,-565.068,0,0
317183,133.198,-563.951,0,0
318485,125.672,-561.211,0,0
319787,119.032,-558.181,0,0
321088,112.417,-554.343,0,0
322390,106.63,-549.261,0,0
323691,102.328,-543.279,0,0
324993,99.9646,-537.431,0,0
326295,98.849,-532.87,0,0
327596,97.9198,-529.344,0,0
328898,96.9599,-526.894,0,0
330200,95.5461,-525.099,0,0
331501.125,93.253,-523.911,0,0
332802.75,89.9941,-522.413,0,0
334104.375,86.1498,-520.294,0,0
335406.0,82.0801,-517.234,0,0
336707.625,78.6569,-513.535,0,0
338009.25,75.3954,-509.725,0,0
339310.875,72.4829,-505.518,0,0
340612.5,69.9624,-501.223,0,0
341914.125,67.8325,-496.975,0,0
343215.75,65.7794,-492.791,0,0
344517.375,63.8255,-488.673,0,0
345819.0,61.8622,-484.216,0,0
347121,60.2511,-479.599,0,0
348422,58.8526,-474.879,0,0
349724,57.9082,-470.03,0,0
351025,57.6192,-465.258,0,0
352327,57.5294,-460.899,0,0
353629,57.4769,-456.743,0,0
354930,57.6905,-452.613,0,0
356232,58.1557,-448.729,0,0
357534,58.6885,-445.375,0,0
358835,58.9143,-442.238,0,0
360137,59.1556,-438.819,0,0
361438,59.4469,-435.633,0,0
362740.1,59.699,-432.46,0,0
364041.725,59.849,-429.128,0,0
365343.35,60.2524,-425.564,0,0
366644.975,60.9132,-422.23,0,0
367946.6,61.3633,-418.643,0,0
369248.225,62.4997,-414.27,0,0
370549.85,65.1005,-410.387,0,0
371851.475,68.3219,-407.543,0,0
373153.1,71.657,-405.893,0,0
374454.725,74.6438,-405.458,0,0
375756.35,76.499,-405.59,0,0
377057.975,78.0047,-405.451,0,0
378359.6,79.3467,-405.716,0,0
379661,80.1217,-406.364,0,0
380963,80.6167,-406.819,0,0
382264,80.9471,-408.194,0,0
383566,79.633,-409.863,0,0
384868,77.0687,-410.575,0,0
386169,74.274,-410.187,0,0
387471,71.3475,-408.819,0,0
388773,69.0461,-406.379,0,0
390074,67.6889,-403.921,0,0
391376,66.8289,-401.944,0,0
392677,65.5845,-400.507,0,0
393979,63.6889,-398.783,0,0
395280.7,61.6442,-396.387,0,0
396582.325,59.8081,-393.444,0,0
397883.95,58.3747,-390,0,0
399185.575,57.4428,-386.435,0,0
400006.6,57.0398,-384.133,0,0

File: sample_2.csv
Frequency (Hz),Impedance (ohms),Phase (Radians),Temperature (C),Humidity (%)
10000.0,225.93,-11279.5,0,0
11301.625,201.279,-9990.08,0,0
12603.25,180.953,-8968.58,0,0
13904.875,177.189,-8144.03,0,0
15206.5,157.899,-7451.5,0,0
16508.125,141.659,-6865.61,0,0
17809.75,131.302,-6364.57,0,0
19111.375,127.579,-5931.75,0,0
20413.0,117.338,-5553.34,0,0
21714.625,124.431,-5227.3,0,0
23016.25,110.243,-4934.94,0,0
24317.875,101.96,-4672.84,0,0
25619.5,96.2417,-4433.05,0,0
26921.1,94.7656,-4217.6,0,0
28222.7,89.2715,-4021.54,0,0
29524.4,93.4879,-3840.31,0,0
30826,86.7173,-3686.56,0,0
32127.6,81.4952,-3534.84,0,0
33429.2,79.311,-3398.27,0,0
34730.9,75.2804,-3269.68,0,0
36032.5,72.686,-3149.8,0,0
37334.1,70.6507,-3037.91,0,0
38635.7,68.5172,-2934.18,0,0
39937.4,66.8098,-2836.62,0,0
41239,65.3374,-2744.83,0,0
42540.6,64.0556,-2659.51,0,0
43842.225,62.9663,-2578.62,0,0
45143.85,61.7596,-2502.14,0,0
46445.475,60.7235,-2430.36,0,0
47747.1,60.2465,-2362.1,0,0
49048.725,60.1554,-2298.87,0,0
50350.35,57.7604,-2237.26,0,0
51651.975,56.6704,-2179.33,0,0
52953.6,55.052,-2122.75,0,0
54255.225,54.2936,-2068.77,0,0
55556.85,53.9081,-2017.38,0,0
56858.475,53.7359,-1968.18,0,0
58160.1,54.0416,-1921.73,0,0
59461.7,54.674,-1876.25,0,0
60763.3,56.0016,-1834.02,0,0
62065,58.4754,-1796.92,0,0
63366.6,55.8389,-1760.5,0,0
64668.2,52.7805,-1722.97,0,0
65969.8,50.7314,-1683.94,0,0
67271.5,51.544,-1646.95,0,0
68573.1,53.7962,-1613.7,0,0
69874.7,55.9569,-1584.36,0,0
71176.3,52.9828,-1556.02,0,0
72478,47.7284,-1525.38,0,0
73779.6,45.2558,-1492.95,0,0
75081.2,45.3413,-1461.25,0,0
76382.825,47.0564,-1431.5,0,0
77684.45,49.9031,-1403.6,0,0
78986.075,53.0282,-1379.7,0,0
80287.7,51.7764,-1358.25,0,0
81589.325,49.3239,-1333.6,0,0
82890.95,48.1091,-1308.15,0,0
84192.575,49.0493,-1283.7,0,0
85494.2,49.8739,-1260.46,0,0
86795.825,50.764,-1238.42,0,0
88097.45,51.3885,-1217.73,0,0
89399.075,51.477,-1196.46,0,0
90700.7,51.6829,-1176.16,0,0
92002.3,53.4076,-1155.51,0,0
93303.9,56.1842,-1137.48,0,0
94605.6,55.7475,-1121.05,0,0
95907.2,55.9222,-1101.59,0,0
97208.8,58.0177,-1085.79,0,0
98510.4,57.8996,-1072.02,0,0
99812.1,52.7753,-1057.27,0,0
101114,49.43,-1039.45,0,0
102415,47.0905,-1019.39,0,0
103717,46.2435,-998.318,0,0
105019,49.763,-978.745,0,0
106320.175,54.6838,-962.389,0,0
107621.8,57.3082,-950.402,0,0
108923.425,55.4733,-938.29,0,0
110225.05,52.4614,-922.35,0,0
111526.675,51.8093,-904.923,0,0
112828.3,52.4183,-887.769,0,0
114129.925,54.4796,-870.894,0,0
115431.55,57.3379,-855.061,0,0
116733.175,60.8111,-840.303,0,0
118034.8,64.3483,-826.988,0,0
119336.425,67.4162,-814.993,0,0
120638.05,68.8843,-804.988,0,0
121939.675,68.0431,-792.997,0,0
123241,67.5267,-779.735,0,0
124543,67.1696,-765.887,0,0
125845,67.6005,-751.071,0,0
127146,69.4532,-736.241,0,0
128448,72.273,-722.442,0,0
129749,74.7135,-709.414,0,0
131051,76.8165,-696.845,0,0
132353,78.2848,-684.161,0,0
133654,79.3398,-670.297,0,0
134956,81.2615,-655.826,0,0
136258,83.6591,-641.217,0,0
137559,86.5703,-626.415,0,0
138860.775,89.4346,-610.917,0,0
140162.4,93.1301,-593.768,0,0
141464.025,99.4794,-575.201,0,0
142765.65,109.506,-557.491,0,0
144067.275,120.86,-541.825,0,0
145368.9,134.042,-527.232,0,0
146670.525,148.072,-513.939,0,0
147972.15,165.362,-501.676,0,0
149273.775,187.384,-491.357,0,0
150575.4,213.523,-493.419,0,0
151877.025,231.297,-507.398,0,0
153178.65,234.288,-522.771,0,0
154480,228.458,-529.676,0,0
155782,222.909,-528.777,0,0
157084,218.965,-524.346,0,0
158385,217.76,-518.048,0,0
159687,217.606,-509.589,0,0
160988,221.807,-502.219,0,0
162290,230.068,-501.829,0,0
163592,223.984,-510.596,0,0
164893,209.155,-505.883,0,0
166195,195.705,-490.054,0,0
167497,189.843,-470.029,0,0
168798,187.571,-447.039,0,0
170100,190.962,-424.642,0,0
171401.375,195.729,-400.581,0,0
172703.0,205.711,-375.421,0,0
174004.625,221.397,-350.416,0,0
175306.25,244.762,-327.838,0,0
176607.875,271.332,-311.574,0,0
177909.5,301.077,-308.763,0,0
179211.125,319.466,-308.719,0,0
180512.75,326.758,-308.154,0,0
181814.375,333.019,-291.668,0,0
183116.0,350.897,-268.373,0,0
184417.625,377.063,-245.115,0,0
185719.25,416.326,-226.375,0,0
187021,455.633,-219.655,0,0
188322,499.526,-216.432,0,0
189624,540.247,-214.579,0,0
190926,590.871,-211.728,0,0
192227,653.927,-222.283,0,0
193529,723.148,-253.587,0,0
194831,779.572,-305.732,0,0
196132,823.962,-368.985,0,0
197434,855.987,-440.469,0,0
198735,874.585,-517.601,0,0
200037,873.016,-601.768,0,0
201339,850.755,-685.836,0,0
202640.35,802.581,-755.483,0,0
203941.975,745.177,-798.267,0,0
205243.6,694.443,-827.335,0,0
206545.225,641.941,-842.477,0,0
207846.85,599.201,-847.701,0,0
209148.475,568.429,-851.042,0,0
210450.1,533.6,-860.14,0,0
211751.725,493.351,-859.481,0,0
213053.35,462.316,-848.155,0,0
214354.975,438.726,-836.757,0,0
215656.6,418.591,-826.294,0,0
216958.225,401.773,-813.886,0,0
218259.85,390.019,-801.699,0,0
219561,382.051,-791.141,0,0
220863,376.744,-782.87,0,0
222165,375.173,-776.609,0,0
223466,375.033,-777.008,0,0
224768,370.76,-780.824,0,0
226070,365.052,-784.087,0,0
227371,359.315,-789.635,0,0
228673,351.265,-798.082,0,0
229974,337.616,-807.749,0,0
231276,319.043,-813.911,0,0
232578,299.266,-815.283,0,0
233879,279.742,-813.334,0,0
235180.95,261.165,-809.218,0,0
236482.575,243.498,-802.411,0,0
237784.2,227.204,-793.926,0,0
239085.825,213.052,-784.164,0,0
240387.45,200.35,-773.646,0,0
241689.075,189.573,-762.535,0,0
242990.7,180.48,-751.884,0,0
244292.325,172.394,-742.478,0,0
245593.95,163.628,-733.769,0,0
246895.575,152.988,-724.826,0,0
248197.2,142.44,-711.932,0,0
249498.825,134.14,-697.232,0,0
250800,128.717,-681.548,0,0
252102,125.591,-666.073,0,0
253404,124.657,-650.812,0,0
254705,125.712,-636.125,0,0
256007,129.183,-622.199,0,0
257309,134.539,-610.105,0,0
258610,141.247,-600.298,0,0
259912,148.833,-591.954,0,0
261213,157.784,-586.338,0,0
262515,166.76,-584.693,0,0
263817,173.196,-586.133,0,0
265118,175.674,-589.349,0,0
266420,174.166,-589.946,0,0
267721.55,173.384,-587.831,0,0
269023.175,172.261,-584.516,0,0
270324.8,173.242,-577.401,0,0
271626.425,179.944,-571.045,0,0
272928.05,189.921,-567.921,0,0
274229.675,204.279,-570.512,0,0
275531.3,215.998,-584.731,0,0
276832.925,216.061,-604.666,0,0
278134.55,205.571,-619.364,0,0
279436.175,192.951,-627.156,0,0
280737.8,180.242,-631.741,0,0
282039.425,166.538,-633.932,0,0
283341,150.77,-631.635,0,0
284643,139.784,-624.443,0,0
285944,128.415,-618.266,0,0
287246,116.903,-606.9,0,0
288548,111.147,-589.132,0,0
289849,116.718,-571.192,0,0
291151,130.703,-563.843,0,0
292452,141.203,-567.097,0,0
293754,143.168,-575.89,0,0
295056,138.139,-577.261,0,0
296357,140.794,-578.246,0,0
297659,137.206,-586.652,0,0
298960.525,128.195,-589.068,0,0
300262.15,120.027,-588.461,0,0
301563.775,112.787,-585.295,0,0
302865.4,108.732,-581.86,0,0
304167.025,104.344,-581.303,0,0
305468.65,97.0083,-580.456,0,0
306770.275,88.7178,-576.512,0,0
308071.9,82.0326,-570.47,0,0
309373.525,76.8271,-564.122,0,0
310675.15,72.4967,-557.482,0,0
311976.775,69.3405,-550.635,0,0
313278.4,67.0698,-544.346,0,0
314580,65.1527,-538.414,0,0
315882,63.6213,-532.756,0,0
317183,62.369,-527.212,0,0
318485,61.6137,-522.104,0,0
319787,60.6603,-517.641,0,0
321088,59.3566,-512.996,0,0
322390,58.0296,-508.241,0,0
323691,56.4778,-502.785,0,0
324993,56.1417,-496.078,0,0
326295,58.4227,-490,0,0
327596,61.2772,-486.703,0,0
328898,62.7206,-484.499,0,0
330200,63.7279,-482.721,0,0
331501.125,63.9679,-481.56,0,0
332802.75,62.8895,-480.65,0,0
334104.375,60.6637,-478.643,0,0
335406.0,58.4811,-475.476,0,0
336707.625,56.6502,-471.664,0,0
338009.25,55.4702,-467.315,0,0
339310.875,54.8841,-462.892,0,0
340612.5,54.8974,-458.68,0,0
341914.125,55.1716,-454.552,0,0
343215.75,55.898,-450.668,0,0
344517.375,56.8012,-447.064,0,0
345819.0,57.9294,-443.758,0,0
347121,59.0966,-440.822,0,0
348422,60.3422,-438.052,0,0
349724,61.8459,-435.502,0,0
351025,63.5334,-433.662,0,0
352327,64.6589,-432.348,0,0
353629,65.3817,-430.971,0,0
354930,65.9474,-429.611,0,0
356232,66.5892,-428.115,0,0
357534,67.5121,-426.593,0,0
358835,68.7718,-425.644,0,0
360137,69.7069,-425.867,0,0
361438,69.4286,-426.421,0,0
362740.1,68.35,-426.598,0,0
364041.725,66.6149,-426.32,0,0
365343.35,64.6392,-425.226,0,0
366644.975,62.8,-423.31,0,0
367946.6,61.8644,-420.974,0,0
369248.225,61.6131,-419.3,0,0
370549.85,60.7918,-418.223,0,0
371851.475,59.6523,-416.846,0,0
373153.1,58.4581,-415.473,0,0
374454.725,57.1344,-413.956,0,0
375756.35,55.5208,-412.291,0,0
377057.975,54.2929,-410.133,0,0
378359.6,53.0768,-408.769,0,0
379661,50.4297,-406.898,0,0
380963,48.6762,-402.915,0,0
382264,48.8635,-400.127,0,0
383566,48.0277,-398.337,0,0
384868,46.758,-396.1,0,0
386169,45.3278,-393.54,0,0
387471,43.934,-390.399,0,0
388773,43.1497,-386.747,0,0
390074,43.3588,-383.314,0,0
391376,43.9788,-380.879,0,0
392677,43.6057,-379.383,0,0
393979,42.0987,-377.204,0,0
395280.7,40.7824,-373.825,0,0
396582.325,40.2568,-370.086,0,0
397883.95,40.2956,-366.428,0,0
399185.575,40.6937,-363.036,0,0
400006.6,41.0083,-361.034,0,0