Folder: ML_Dmg_Mehdi_Dataset/Accelerated corrosion test data/2025-09-30_18-00-03 (part 2)

File: sample_3.csv
Frequency (Hz),Impedance (ohms),Phase (Radians),Temperature (C),Humidity (%)
10000.0,255.136,-11689.6,0,0
11301.625,227.329,-10354.7,0,0
12603.25,205.881,-9293.28,0,0
13904.875,188.441,-8428.69,0,0
15206.5,175.068,-7705.77,0,0
16508.125,164.226,-7115.34,0,0
17809.75,159.498,-6591.28,0,0
19111.375,147.492,-6142.87,0,0
20413.0,157.77,-5745.8,0,0
21714.625,139.258,-5427.39,0,0
23016.25,129.469,-5124.52,0,0
24317.875,120.205,-4847.54,0,0
25619.5,114.159,-4602.75,0,0
26921.1,109.752,-4374.31,0,0
28222.7,104.751,-4169.63,0,0
29524.4,110.843,-3992.57,0,0
30826,101.555,-3822.4,0,0
32127.6,102.168,-3660.62,0,0
33429.2,100.331,-3535.57,0,0
34730.9,88.9372,-3399.33,0,0
36032.5,84.4619,-3272.88,0,0
37334.1,81.3386,-3156.23,0,0
38635.7,79.2078,-3047.12,0,0
39937.4,76.7557,-2945.62,0,0
41239,75.2545,-2849.46,0,0
42540.6,74.4687,-2760.49,0,0
43842.225,72.8132,-2675.55,0,0
45143.85,71.5447,-2596.72,0,0
46445.475,70.9722,-2521.46,0,0
47747.1,71.1212,-2449.45,0,0
49048.725,69.4805,-2384.77,0,0
50350.35,67.5387,-2319.93,0,0
51651.975,67.1465,-2257.92,0,0
52953.6,67.7682,-2198.37,0,0
54255.225,70.7202,-2144.41,0,0
55556.85,67.8459,-2097.78,0,0
56858.475,62.6174,-2044.85,0,0
58160.1,62.2107,-1993.34,0,0
59461.7,62.8786,-1944.45,0,0
60763.3,64.2396,-1897.98,0,0
62065,66.6137,-1853.85,0,0
63366.6,70.2039,-1810.77,0,0
64668.2,79.0936,-1770.03,0,0
65969.8,93.395,-1745.37,0,0
67271.5,77.6227,-1719.98,0,0
68573.1,76.9703,-1683.42,0,0
69874.7,75.7894,-1654.22,0,0
71176.3,70.2721,-1623.1,0,0
72478,68.7645,-1590.76,0,0
73779.6,66.7932,-1562.17,0,0
75081.2,63.3242,-1533.43,0,0
76382.825,60.2021,-1504.14,0,0
77684.45,58.1368,-1475.29,0,0
78986.075,56.1393,-1446.97,0,0
80287.7,54.8272,-1419.18,0,0
81589.325,53.9652,-1392.31,0,0
82890.95,53.4749,-1365.99,0,0
84192.575,53.3153,-1340.49,0,0
85494.2,53.3183,-1315.65,0,0
86795.825,53.5663,-1291.5,0,0
88097.45,54.2052,-1267.72,0,0
89399.075,55.6652,-1243.93,0,0
90700.7,58.0074,-1222.21,0,0
92002.3,61.114,-1201.52,0,0
93303.9,64.6569,-1183.41,0,0
94605.6,66.1002,-1169.45,0,0
95907.2,60.1736,-1152.31,0,0
97208.8,59.2748,-1131.52,0,0
98510.4,59.2869,-1112.85,0,0
99812.1,58.0738,-1094.48,0,0
101114,57.1616,-1074.93,0,0
102415,58.3713,-1054.32,0,0
103717,62.3803,-1036.92,0,0
105019,65.6565,-1023.53,0,0
106320.175,63.7781,-1010.41,0,0
107621.8,60.7712,-994.115,0,0
108923.425,58.9957,-975.989,0,0
110225.05,59.1964,-957.049,0,0
111526.675,61.916,-938.999,0,0
112828.3,64.1873,-923.076,0,0
114129.925,66.1228,-906.838,0,0
115431.55,68.8548,-890.566,0,0
116733.175,72.9698,-874.635,0,0
118034.8,78.6666,-859.726,0,0
119336.425,85.4276,-848.632,0,0
120638.05,89.3667,-842.703,0,0
121939.675,87.5108,-833.475,0,0
123241,87.824,-821.146,0,0
124543,88.5408,-810.331,0,0
125845,88.8371,-800.077,0,0
127146,87.4977,-789.83,0,0
128448,85.0946,-778.178,0,0
129749,83.695,-764.281,0,0
131051,84.9843,-750.883,0,0
132353,84.7093,-739.519,0,0
133654,83.9947,-727.448,0,0
134956,82.6625,-714.611,0,0
136258,81.3669,-700.632,0,0
137559,81.6525,-685.321,0,0
138860.775,82.952,-671.739,0,0
140162.4,82.3449,-657.978,0,0
141464.025,82.6051,-643.055,0,0
142765.65,82.5026,-627.128,0,0
144067.275,83.3395,-609.951,0,0
145368.9,85.2973,-592.116,0,0
146670.525,88.1317,-573.092,0,0
147972.15,93.1619,-553.029,0,0
149273.775,100.505,-532.687,0,0
150575.4,111.453,-512.557,0,0
151877.025,125.146,-496.208,0,0
153178.65,138.178,-483.037,0,0
154480,148.445,-471.251,0,0
155782,156.682,-455.473,0,0
157084,169.022,-438.535,0,0
158385,184.18,-424.862,0,0
159687,193.809,-409.603,0,0
160988,208.321,-381.734,0,0
162290,240.391,-356.399,0,0
163592,281.91,-342.697,0,0
164893,329.067,-338.216,0,0
166195,378.771,-358.74,0,0
167497,410.891,-394.167,0,0
168798,424.767,-434.057,0,0
170100,421.661,-470.905,0,0
171401.375,401.946,-484.622,0,0
172703.0,396.275,-484.747,0,0
174004.625,401.607,-488.038,0,0
175306.25,407.765,-506.013,0,0
176607.875,395.494,-524.38,0,0
177909.5,379.759,-533.946,0,0
179211.125,358.579,-527.123,0,0
180512.75,351.991,-512.724,0,0
181814.375,357.542,-507.413,0,0
183116.0,350.375,-513.813,0,0
184417.625,337.409,-506.377,0,0
185719.25,328.077,-490.696,0,0
187021,326.661,-469.875,0,0
188322,335.159,-452.768,0,0
189624,343.24,-441.688,0,0
190926,352.412,-428.194,0,0
192227,361.951,-415.51,0,0
193529,374.651,-399.037,0,0
194831,399.334,-381.192,0,0
196132,434.393,-381.975,0,0
197434,456.85,-397.035,0,0
198735,463.666,-410.636,0,0
200037,469.046,-409.452,0,0
201339,475.763,-407.112,0,0
202640.35,489.511,-397.157,0,0
203941.975,517.601,-391.107,0,0
205243.6,549.419,-399.47,0,0
206545.225,569.66,-418.973,0,0
207846.85,583.059,-427.99,0,0
209148.475,607.455,-432.607,0,0
210450.1,640.279,-449.133,0,0
211751.725,669.156,-477.899,0,0
213053.35,692.229,-511.34,0,0
214354.975,711.925,-553.632,0,0
215656.6,720.174,-601.569,0,0
216958.225,720.879,-651.611,0,0
218259.85,705.648,-700.716,0,0
219561,680.552,-740.766,0,0
220863,660.292,-774.092,0,0
222165,627.167,-812.587,0,0
223466,582.975,-835.351,0,0
224768,542.829,-838.711,0,0
226070,519.2,-836.694,0,0
227371,502.283,-846.715,0,0
228673,477.207,-859.012,0,0
229974,446.433,-867.856,0,0
231276,414.478,-869.008,0,0
232578,385.983,-864.879,0,0
233879,360.522,-859.184,0,0
235180.95,336.289,-852.933,0,0
236482.575,311.31,-844.846,0,0
237784.2,287.67,-832.636,0,0
239085.825,266.032,-816.244,0,0
240387.45,250.058,-796.553,0,0
241689.075,239.594,-777.452,0,0
242990.7,233.191,-759.509,0,0
244292.325,230.149,-744.789,0,0
245593.95,226.943,-734.156,0,0
246895.575,223.089,-723.47,0,0
248197.2,219.541,-713.196,0,0
249498.825,217.789,-703.586,0,0
250800,215.634,-696.516,0,0
252102,210.634,-689.951,0,0
253404,203.714,-679.77,0,0
254705,200.107,-664.863,0,0
256007,201.534,-649.221,0,0
257309,210.086,-635.705,0,0
258610,220.481,-629.74,0,0
259912,230.299,-625.318,0,0
261213,242.894,-627.762,0,0
262515,250.526,-638.908,0,0
263817,247.719,-652.362,0,0
265118,237.272,-661.229,0,0
266420,222.747,-662.936,0,0
267721.55,209.917,-657.344,0,0
269023.175,201.975,-647.767,0,0
270324.8,198.487,-638.174,0,0
271626.425,198.243,-629.452,0,0
272928.05,199.672,-623.313,0,0
274229.675,200.897,-618.203,0,0
275531.3,204.394,-613.151,0,0
276832.925,210.438,-610.637,0,0
278134.55,217.089,-614.892,0,0
279436.175,217.871,-623.842,0,0
280737.8,210.597,-632.045,0,0
282039.425,201.14,-633.751,0,0
283341,191.934,-633.212,0,0
284643,183.156,-629.298,0,0
285944,175.915,-623.583,0,0
287246,170.561,-615.649,0,0
288548,169.748,-606.781,0,0
289849,172.313,-601.887,0,0
291151,173.123,-599.792,0,0
292452,172.901,-597.994,0,0
293754,172.728,-595.178,0,0
295056,175.131,-593.561,0,0
296357,177.582,-596.039,0,0
297659,176.452,-600.981,0,0
298960.525,171.039,-605.592,0,0
300262.15,163.582,-607.073,0,0
301563.775,155.979,-606.517,0,0
302865.4,148.478,-604.013,0,0
304167.025,141.976,-600.172,0,0
305468.65,136.648,-595.238,0,0
306770.275,132.414,-590.239,0,0
308071.9,129.702,-585.37,0,0
309373.525,127.316,-581.996,0,0
310675.15,123.72,-579.069,0,0
311976.775,119.52,-575.107,0,0
313278.4,115.437,-569.998,0,0
314580,112.591,-563.391,0,0
315882,112.296,-556.779,0,0
317183,113.639,-552.162,0,0
318485,114.643,-549.893,0,0
319787,114.056,-548.024,0,0
321088,113.171,-545.587,0,0
322390,112.977,-543.478,0,0
323691,112.725,-542.663,0,0
324993,111.096,-542.723,0,0
326295,107.943,-542.64,0,0
327596,103.802,-541.393,0,0
328898,99.7669,-538.94,0,0
330200,95.9427,-536.422,0,0
331501.125,91.7249,-533.518,0,0
332802.75,87.3136,-529.627,0,0
334104.375,83.139,-524.861,0,0
335406.0,79.4901,-518.943,0,0
336707.625,77.2743,-512.501,0,0
338009.25,76.024,-506.26,0,0
339310.875,75.4507,-499.917,0,0
340612.5,76.3965,-493.712,0,0
341914.125,78.6236,-488.907,0,0
343215.75,80.781,-485.944,0,0
344517.375,81.9508,-484.212,0,0
345819.0,81.8615,-482.569,0,0
347121,81.1368,-480.402,0,0
348422,80.1521,-477.394,0,0
349724,80.1351,-473.925,0,0
351025,80.9658,-470.965,0,0
352327,82.0223,-469.497,0,0
353629,81.6152,-468.985,0,0
354930,79.535,-467.71,0,0
356232,77.41,-464.985,0,0
357534,75.9875,-461.568,0,0
358835,75.0916,-458.123,0,0
360137,74.5902,-454.49,0,0
361438,74.7242,-450.876,0,0
362740.1,75.4638,-447.597,0,0
364041.725,76.5312,-445.003,0,0
365343.35,77.9198,-443.53,0,0
366644.975,78.1396,-443.57,0,0
367946.6,75.5121,-443.159,0,0
369248.225,72.5833,-439.622,0,0
370549.85,72.5238,-434.527,0,0
371851.475,74.4998,-431.954,0,0
373153.1,74.8054,-431.371,0,0
374454.725,73.3499,-429.95,0,0
375756.35,71.8969,-427.294,0,0
377057.975,71.0789,-423.786,0,0
378359.6,71.473,-420.257,0,0
379661,72.3407,-417.569,0,0
380963,73.1088,-415.473,0,0
382264,73.915,-413.821,0,0
383566,74.065,-413.087,0,0
384868,72.9331,-412.022,0,0
386169,71.4718,-409.957,0,0
387471,70.1609,-407.178,0,0
388773,69.3772,-403.793,0,0
390074,69.1243,-400.031,0,0
391376,69.8601,-396.136,0,0
392677,71.4901,-392.615,0,0
393979,73.9458,-390.062,0,0
395280.7,76.4739,-388.744,0,0
396582.325,78.5426,-388.671,0,0
397883.95,79.4531,-389.367,0,0
399185.575,78.9578,-390,0,0
400006.6,78.0044,-390.043,0,0

File: sample_4.csv
Frequency (Hz),Impedance (ohms),Phase (Radians),Temperature (C),Humidity (%)
10000.0,264.604,-11794.5,0,0
11301.625,236.185,-10449,0,0
12603.25,214.099,-9374.24,0,0
13904.875,195.026,-8499.7,0,0
15206.5,182.381,-7779.86,0,0
16508.125,184.767,-7167.74,0,0
17809.75,157.271,-6665.01,0,0
19111.375,146.629,-6211.88,0,0
20413.0,142.377,-5815.07,0,0
21714.625,144.928,-5470.39,0,0
23016.25,125.882,-5173.43,0,0
24317.875,117.841,-4890.76,0,0
25619.5,113.758,-4638.54,0,0
26921.1,107.801,-4411.43,0,0
28222.7,120.248,-4205.54,0,0
29524.4,113.557,-4030.93,0,0
30826,99.8478,-3860,0,0
32127.6,99.8185,-3701.14,0,0
33429.2,91.0601,-3560.78,0,0
34730.9,86.3295,-3423.82,0,0
36032.5,82.8465,-3297.26,0,0
37334.1,80.7906,-3178.92,0,0
38635.7,78.365,-3067.9,0,0
39937.4,77.8719,-2963.18,0,0
41239,80.4483,-2868.35,0,0
42540.6,79.6465,-2782.75,0,0
43842.225,74.9217,-2699.02,0,0
45143.85,72.0191,-2618.43,0,0
46445.475,71.4373,-2541.44,0,0
47747.1,70.8379,-2472.26,0,0
49048.725,66.9913,-2403.58,0,0
50350.35,65.6028,-2336.55,0,0
51651.975,65.1942,-2272.19,0,0
52953.6,67.2676,-2209.83,0,0
54255.225,74.8821,-2153.91,0,0
55556.85,72.6002,-2110.62,0,0
56858.475,66.7816,-2057.47,0,0
58160.1,67.8086,-2005.29,0,0
59461.7,72.3075,-1955,0,0
60763.3,81.8088,-1918.15,0,0
62065,71.2248,-1885.1,0,0
63366.6,65.8122,-1839.33,0,0
64668.2,65.9047,-1796.39,0,0
65969.8,67.9546,-1756.41,0,0
67271.5,71.953,-1720.9,0,0
68573.1,74.4071,-1692.86,0,0
69874.7,66.6773,-1661.96,0,0
71176.3,66.02,-1627.82,0,0
72478,60.0179,-1596.7,0,0
73779.6,58.7354,-1560.31,0,0
75081.2,60.8989,-1528.19,0,0
76382.825,63.1615,-1499.73,0,0
77684.45,65.7613,-1472.05,0,0
78986.075,64.2411,-1449.6,0,0
80287.7,61.1948,-1422.67,0,0
81589.325,60.4822,-1396.64,0,0
82890.95,59.2919,-1371.47,0,0
84192.575,58.3053,-1346.71,0,0
85494.2,57.6403,-1322.44,0,0
86795.825,57.1923,-1298.94,0,0
88097.45,55.9739,-1276.81,0,0
89399.075,54.1971,-1252.65,0,0
90700.7,54.0493,-1229.56,0,0
92002.3,54.3477,-1206.6,0,0
93303.9,55.593,-1185.85,0,0
94605.6,54.1243,-1165.1,0,0
95907.2,53.8995,-1142.68,0,0
97208.8,55.0137,-1121.2,0,0
98510.4,56.4233,-1099.97,0,0
99812.1,59.3421,-1079.46,0,0
101114,63.9932,-1061.18,0,0
102415,62.6517,-1047.1,0,0
103717,59.6433,-1024.56,0,0
105019,63.9124,-1000.91,0,0
106320.175,70.5864,-981.281,0,0
107621.8,77.406,-963.667,0,0
108923.425,85.7197,-947.465,0,0
110225.05,93.4208,-935.236,0,0
111526.675,99.5745,-924.602,0,0
112828.3,104.482,-915.303,0,0
114129.925,107.405,-907.213,0,0
115431.55,108.565,-899.513,0,0
116733.175,107.207,-891.221,0,0
118034.8,103.836,-879.837,0,0
119336.425,105.002,-864.783,0,0
120638.05,109.902,-859.583,0,0
121939.675,102.719,-852.493,0,0
123241,97.8752,-840.013,0,0
124543,94.6671,-827.301,0,0
125845,91.8225,-814.177,0,0
127146,88.7444,-801.964,0,0
128448,84.621,-788.671,0,0
129749,79.616,-773.663,0,0
131051,75.9829,-756.186,0,0
132353,74.1031,-737.928,0,0
133654,73.7056,-719.315,0,0
134956,74.7644,-700.551,0,0
136258,77.2756,-682.456,0,0
137559,80.4936,-665.32,0,0
138860.775,82.5006,-648.022,0,0
140162.4,85.764,-629.333,0,0
141464.025,90.8631,-610.349,0,0
142765.65,96.9087,-592.031,0,0
144067.275,103.787,-573.469,0,0
145368.9,112.31,-554.691,0,0
146670.525,122.365,-536.31,0,0
147972.15,133.758,-518.598,0,0
149273.775,146.818,-500.279,0,0
150575.4,163.3,-483.102,0,0
151877.025,183.206,-468.522,0,0
153178.65,204.875,-458.419,0,0
154480,225.252,-454.48,0,0
155782,240.551,-451.202,0,0
157084,255.58,-447.447,0,0
158385,271.919,-441.487,0,0
159687,294.01,-440.345,0,0
160988,310.385,-448.158,0,0
162290,317.073,-455.8,0,0
163592,322.297,-453.662,0,0
164893,334.056,-446.95,0,0
166195,352.575,-445.48,0,0
167497,376.593,-448.658,0,0
168798,401.986,-469.48,0,0
170100,410.328,-501.129,0,0
171401.375,401.124,-535.365,0,0
172703.0,372.76,-554.812,0,0
174004.625,339.949,-554.12,0,0
175306.25,315.776,-538.783,0,0
176607.875,301.893,-516.661,0,0
177909.5,297.766,-493.569,0,0
179211.125,299.123,-474.142,0,0
180512.75,302.063,-456.11,0,0
181814.375,306.007,-438.333,0,0
183116.0,310.761,-419.314,0,0
184417.625,318.312,-397.308,0,0
185719.25,330.285,-373.727,0,0
187021,348.134,-349.147,0,0
188322,372.125,-325.546,0,0
189624,402.703,-304.033,0,0
190926,440.642,-286.41,0,0
192227,485.573,-276.645,0,0
193529,532.909,-276.797,0,0
194831,579.674,-284.712,0,0
196132,627.048,-299.302,0,0
197434,676.068,-321.698,0,0
198735,726.014,-357.706,0,0
200037,768.32,-410.62,0,0
201339,792.611,-473.825,0,0
202640.35,797.78,-537.349,0,0
203941.975,789.86,-589.987,0,0
205243.6,779.606,-638.382,0,0
206545.225,765.78,-684.863,0,0
207846.85,744.287,-732.327,0,0
209148.475,706.985,-774.571,0,0
210450.1,662.619,-797.733,0,0
211751.725,624.601,-806.975,0,0
213053.35,594.416,-806.098,0,0
214354.975,577.522,-803.222,0,0
215656.6,570.133,-808.537,0,0
216958.225,559.489,-823.678,0,0
218259.85,542.214,-840.235,0,0
219561,520.814,-853.58,0,0
220863,498.739,-867.259,0,0
222165,471.305,-879.21,0,0
223466,441.109,-884.575,0,0
224768,411.832,-886.552,0,0
226070,381.493,-885.369,0,0
227371,350.742,-877.54,0,0
228673,323.382,-865.344,0,0
229974,299.92,-848.267,0,0
231276,282.222,-828.708,0,0
232578,270.591,-810.164,0,0
233879,262.095,-793.129,0,0
235180.95,256.731,-778.09,0,0
236482.575,252.945,-765.863,0,0
237784.2,249.395,-755.033,0,0
239085.825,247.473,-745.677,0,0
240387.45,245.259,-739.142,0,0
241689.075,241.345,-734.47,0,0
242990.7,235.452,-729.418,0,0
244292.325,228.865,-723.071,0,0
245593.95,221.991,-715.713,0,0
246895.575,216.295,-706.452,0,0
248197.2,212.866,-697.898,0,0
249498.825,208.674,-691.348,0,0
250800,203.262,-683.767,0,0
252102,196.963,-676.109,0,0
253404,188.292,-664.888,0,0
254705,183.163,-648.255,0,0
256007,182.641,-630.37,0,0
257309,187.012,-611.473,0,0
258610,196.925,-594.649,0,0
259912,211.678,-580.304,0,0
261213,231.633,-571.604,0,0
262515,253.018,-571.896,0,0
263817,272.588,-579.137,0,0
265118,287.697,-592.3,0,0
266420,298.334,-612.101,0,0
267721.55,296.789,-635.117,0,0
269023.175,287.749,-651.172,0,0
270324.8,274.626,-663.526,0,0
271626.425,262.299,-666.989,0,0
272928.05,254.522,-671.596,0,0
274229.675,244.067,-678.701,0,0
275531.3,228.183,-684.685,0,0
276832.925,207.918,-683.399,0,0
278134.55,190.601,-673.218,0,0
279436.175,180.09,-659.141,0,0
280737.8,177.343,-646.051,0,0
282039.425,176.623,-637.866,0,0
283341,175.188,-630.174,0,0
284643,176.669,-624.718,0,0
285944,175.899,-621.869,0,0
287246,172.507,-618.923,0,0
288548,167.47,-610.591,0,0
289849,170.348,-598.228,0,0
291151,181.267,-591.575,0,0
292452,193.316,-594.303,0,0
293754,200.33,-604.766,0,0
295056,198.513,-618.694,0,0
296357,188.098,-628.567,0,0
297659,175.307,-631.618,0,0
298960.525,164.371,-629.762,0,0
300262.15,155.729,-626.949,0,0
301563.775,147.614,-623.336,0,0
302865.4,140.023,-618.357,0,0
304167.025,134.076,-612.28,0,0
305468.65,129.668,-606.127,0,0
306770.275,126.799,-599.998,0,0
308071.9,125.166,-595.526,0,0
309373.525,123.042,-592.24,0,0
310675.15,120.073,-589.373,0,0
311976.775,116.446,-586.047,0,0
313278.4,112.78,-581.708,0,0
314580,110.249,-576.984,0,0
315882,108.76,-572.69,0,0
317183,107.398,-569.639,0,0
318485,105.832,-567.515,0,0
319787,102.917,-566.171,0,0
321088,98.5337,-564.453,0,0
322390,92.6228,-561.806,0,0
323691,86.1828,-556.287,0,0
324993,82.0802,-548.758,0,0
326295,79.7368,-541.833,0,0
327596,77.6364,-535.231,0,0
328898,76.5146,-528.036,0,0
330200,76.9413,-521.183,0,0
331501.125,78.6163,-515.799,0,0
332802.75,79.772,-512.391,0,0
334104.375,79.6579,-509.53,0,0
335406.0,78.4803,-506.254,0,0
336707.625,76.9108,-502.034,0,0
338009.25,75.4612,-496.54,0,0
339310.875,75.6325,-490.072,0,0
340612.5,77.6089,-484.047,0,0
341914.125,81.0696,-479.066,0,0
343215.75,85.6465,-476.461,0,0
344517.375,88.8999,-476.619,0,0
345819.0,89.793,-477.562,0,0
347121,88.7682,-477.933,0,0
348422,87.0708,-477.287,0,0
349724,84.799,-475.685,0,0
351025,82.447,-473.013,0,0
352327,80.7164,-469.496,0,0
353629,79.9152,-465.37,0,0
354930,80.4592,-461.593,0,0
356232,81.0429,-459.309,0,0
357534,80.6863,-457.383,0,0
358835,79.3126,-455.219,0,0
360137,77.7549,-451.392,0,0
361438,77.6189,-446.93,0,0
362740.1,78.5763,-442.843,0,0
364041.725,79.9508,-439.831,0,0
365343.35,80.5477,-437.393,0,0
366644.975,80.5573,-433.917,0,0
367946.6,81.8016,-429.491,0,0
369248.225,84.8492,-425.123,0,0
370549.85,89.7161,-422.657,0,0
371851.475,94.6379,-422.579,0,0
373153.1,98.4966,-425.062,0,0
374454.725,99.1894,-428.91,0,0
375756.35,97.3321,-430.672,0,0
377057.975,96.0995,-431.105,0,0
378359.6,94.775,-431.532,0,0
379661,93.0354,-431.359,0,0
380963,91.7154,-430.836,0,0
382264,90.6051,-430.399,0,0
383566,89.7887,-430.466,0,0
384868,87.7788,-431.924,0,0
386169,83.2794,-432.253,0,0
387471,78.6623,-430.003,0,0
388773,75.2479,-425.935,0,0
390074,74.3398,-421.538,0,0
391376,75.0717,-419.302,0,0
392677,74.2776,-419.386,0,0
393979,70.9387,-418.981,0,0
395280.7,66.7464,-416.4,0,0
396582.325,63.5231,-412.33,0,0
397883.95,61.3418,-407.684,0,0
399185.575,59.9174,-403.114,0,0
400006.6,59.1994,-400.089,0,0