Folder: ML_Dmg_Mehdi_Dataset/Accelerated corrosion test data/2025-10-17_18-00-03 (part 3)

File: sample_7.csv
Frequency (Hz),Impedance (ohms),Phase (Radians),Temperature (C),Humidity (%)
10000.0,274.014,-12108.4,0,0
11301.625,247.513,-10711.3,0,0
12603.25,258.197,-9658.59,0,0
13904.875,209.542,-8763.72,0,0
15206.5,195.971,-8024.99,0,0
16508.125,171.531,-7383.13,0,0
17809.75,170.066,-6827.6,0,0
19111.375,179.901,-6382.64,0,0
20413.0,169.509,-5992.34,0,0
21714.625,157.76,-5650.42,0,0
23016.25,130.692,-5325.91,0,0
24317.875,123.009,-5031.94,0,0
25619.5,119.063,-4767.14,0,0
26921.1,122.142,-4522.35,0,0
28222.7,178.41,-4307.76,0,0
29524.4,140.269,-4180.54,0,0
30826,132.394,-3994.3,0,0
32127.6,118.249,-3846.97,0,0
33429.2,101.851,-3696.49,0,0
34730.9,92.9488,-3551.38,0,0
36032.5,88.5135,-3417.28,0,0
37334.1,86.27,-3293.29,0,0
38635.7,86.8041,-3175.91,0,0
39937.4,98.7985,-3076.15,0,0
41239,86.9879,-2989.29,0,0
42540.6,80.1351,-2893.25,0,0
43842.225,79.012,-2803.78,0,0
45143.85,80.2395,-2725.72,0,0
46445.475,77.3856,-2653.73,0,0
47747.1,70.8939,-2577.15,0,0
49048.725,68.1344,-2506.82,0,0
50350.35,66.2111,-2439.39,0,0
51651.975,64.634,-2375.76,0,0
52953.6,63.7771,-2315.14,0,0
54255.225,62.3616,-2258.42,0,0
55556.85,61.0472,-2203.63,0,0
56858.475,60.2551,-2151.18,0,0
58160.1,59.3279,-2100.55,0,0
59461.7,59.4319,-2052.99,0,0
60763.3,59.0818,-2009.26,0,0
62065,57.0146,-1965.73,0,0
63366.6,55.7179,-1922.86,0,0
64668.2,55.0079,-1882.34,0,0
65969.8,55.0023,-1843.69,0,0
67271.5,53.2289,-1806.88,0,0
68573.1,52.1435,-1770.08,0,0
69874.7,51.4759,-1734.71,0,0
71176.3,51.3488,-1700.94,0,0
72478,50.2519,-1668.73,0,0
73779.6,49.469,-1636.88,0,0
75081.2,48.9365,-1606.07,0,0
76382.825,48.3589,-1576.17,0,0
77684.45,48.1182,-1547.35,0,0
78986.075,47.7686,-1519.37,0,0
80287.7,47.612,-1492.28,0,0
81589.325,47.278,-1465.91,0,0
82890.95,46.9975,-1440.34,0,0
84192.575,46.9945,-1415.12,0,0
85494.2,47.2685,-1391.05,0,0
86795.825,47.2405,-1367.57,0,0
88097.45,47.3976,-1344.99,0,0
89399.075,46.9219,-1322.63,0,0
90700.7,47.1322,-1300.35,0,0
92002.3,47.4578,-1278.48,0,0
93303.9,48.0262,-1257.39,0,0
94605.6,50.1136,-1237.42,0,0
95907.2,49.9416,-1219.72,0,0
97208.8,49.2983,-1200.09,0,0
98510.4,50.2001,-1180.71,0,0
99812.1,49.8473,-1162.03,0,0
101114,51.3083,-1142.85,0,0
102415,52.8599,-1124.87,0,0
103717,55.7595,-1108.13,0,0
105019,56.6289,-1092.91,0,0
106320.175,56.179,-1076.91,0,0
107621.8,57.0258,-1060.51,0,0
108923.425,58.1488,-1044.18,0,0
110225.05,58.7074,-1027.43,0,0
111526.675,61.7877,-1010.54,0,0
112828.3,66.5343,-994.327,0,0
114129.925,71.5569,-980.231,0,0
115431.55,77.8162,-967.405,0,0
116733.175,86.1668,-958.576,0,0
118034.8,89.9798,-953.98,0,0
119336.425,93.1248,-951.382,0,0
120638.05,86.0546,-951.796,0,0
121939.675,75.2077,-941.672,0,0
123241,67.584,-928.457,0,0
124543,63.2804,-913.864,0,0
125845,59.148,-899.914,0,0
127146,55.8437,-885.273,0,0
128448,54.0238,-870.292,0,0
129749,52.4403,-855.69,0,0
131051,51.1841,-841.384,0,0
132353,50.4056,-825.952,0,0
133654,50.7814,-810.384,0,0
134956,53.4711,-795.402,0,0
136258,57.8593,-782.657,0,0
137559,58.6305,-774.74,0,0
138860.775,56.0885,-762.396,0,0
140162.4,56.3362,-748.535,0,0
141464.025,56.2351,-734.999,0,0
142765.65,57.3442,-720.523,0,0
144067.275,60.1208,-706.966,0,0
145368.9,61.907,-694.837,0,0
146670.525,62.9721,-681.794,0,0
147972.15,64.5761,-668.338,0,0
149273.775,65.1447,-655.529,0,0
150575.4,65.5067,-639.869,0,0
151877.025,67.5255,-622.439,0,0
153178.65,71.7325,-604.366,0,0
154480,77.6938,-586.125,0,0
155782,86.1193,-567.679,0,0
157084,97.2029,-550.183,0,0
158385,111.019,-535.87,0,0
159687,121.886,-526.585,0,0
160988,126.218,-513.368,0,0
162290,134.323,-489.533,0,0
163592,152.281,-464.371,0,0
164893,179.076,-443.42,0,0
166195,208.252,-422.299,0,0
167497,255.277,-404.403,0,0
168798,315.842,-406.607,0,0
170100,373.54,-437.261,0,0
171401.375,413,-492.373,0,0
172703.0,428.137,-558.199,0,0
174004.625,399.802,-624.238,0,0
175306.25,349.827,-643.393,0,0
176607.875,324.219,-633.216,0,0
177909.5,329.709,-629.826,0,0
179211.125,334.378,-664.792,0,0
180512.75,302.133,-688.692,0,0
181814.375,263.916,-702.63,0,0
183116.0,220.013,-695.844,0,0
184417.625,188.464,-674.15,0,0
185719.25,168.749,-651.292,0,0
187021,153.14,-623.98,0,0
188322,149.048,-598.719,0,0
189624,143.216,-580.189,0,0
190926,137.133,-558.277,0,0
192227,135.859,-534.062,0,0
193529,137.234,-509.363,0,0
194831,142.913,-484.77,0,0
196132,153.69,-463.048,0,0
197434,165.589,-444.796,0,0
198735,174.837,-428.873,0,0
200037,183.457,-408.903,0,0
201339,197.13,-385.922,0,0
202640.35,217.137,-361.014,0,0
203941.975,244.589,-339.299,0,0
205243.6,278.328,-320.204,0,0
206545.225,322.945,-312.748,0,0
207846.85,359.012,-318.12,0,0
209148.475,395.663,-314.243,0,0
210450.1,453.737,-324.462,0,0
211751.725,500.929,-367.861,0,0
213053.35,524.977,-418.744,0,0
214354.975,532.897,-464.68,0,0
215656.6,530.063,-506.536,0,0
216958.225,527.295,-546.952,0,0
218259.85,505.731,-587.312,0,0
219561,471.088,-616.628,0,0
220863,434.62,-619.113,0,0
222165,412.928,-609.388,0,0
223466,406.55,-601.072,0,0
224768,402.829,-597.973,0,0
226070,404.266,-590.529,0,0
227371,415.035,-593.142,0,0
228673,427.111,-604.749,0,0
229974,432.267,-625.821,0,0
231276,430.884,-654.29,0,0
232578,419.934,-682.166,0,0
233879,393.326,-712.362,0,0
235180.95,350.073,-726.156,0,0
236482.575,314.68,-715.596,0,0
237784.2,291.476,-706.271,0,0
239085.825,266.441,-688.727,0,0
240387.45,261.988,-668.606,0,0
241689.075,255.387,-663.41,0,0
242990.7,240.297,-653.636,0,0
244292.325,231.804,-634.983,0,0
245593.95,234.933,-620.65,0,0
246895.575,234.159,-613.344,0,0
248197.2,231.357,-603.001,0,0
249498.825,231.954,-590.979,0,0
250800,236.604,-578.8,0,0
252102,246.264,-569.374,0,0
253404,261.368,-566.51,0,0
254705,272.136,-574.955,0,0
256007,273.698,-586.082,0,0
257309,268.518,-593.449,0,0
258610,262.14,-594.823,0,0
259912,258.251,-595.545,0,0
261213,252.319,-593.334,0,0
262515,250.527,-587.006,0,0
263817,256.959,-584.362,0,0
265118,260.209,-590.58,0,0
266420,257.218,-594.641,0,0
267721.55,256.233,-598,0,0
269023.175,251.688,-601.198,0,0
270324.8,250.246,-599.694,0,0
271626.425,257.182,-601.302,0,0
272928.05,265.946,-620.48,0,0
274229.675,252.072,-649.239,0,0
275531.3,220.103,-666.135,0,0
276832.925,183.074,-661.91,0,0
278134.55,155.527,-641.399,0,0
279436.175,142.658,-617.829,0,0
280737.8,138.745,-597.001,0,0
282039.425,138.209,-583.532,0,0
283341,134.564,-569.851,0,0
284643,135.361,-553.379,0,0
285944,141.561,-540.089,0,0
287246,148.391,-532.543,0,0
288548,151.369,-527.042,0,0
289849,153.931,-519.025,0,0
291151,158.974,-509.924,0,0
292452,166.161,-503.185,0,0
293754,174.064,-497.382,0,0
295056,182.768,-492.687,0,0
296357,193.342,-489.178,0,0
297659,206.161,-488.071,0,0
298960.525,219.644,-491.27,0,0
300262.15,233.322,-497.373,0,0
301563.775,248.449,-508.797,0,0
302865.4,261.689,-531.577,0,0
304167.025,258.533,-561.792,0,0
305468.65,243.412,-583.455,0,0
306770.275,223.613,-597.72,0,0
308071.9,202.594,-604.114,0,0
309373.525,182.18,-603.894,0,0
310675.15,166.304,-598.222,0,0
311976.775,154.432,-592.009,0,0
313278.4,144.188,-585.909,0,0
314580,134.596,-578.266,0,0
315882,128.337,-569.114,0,0
317183,124.872,-561.448,0,0
318485,122.237,-555.28,0,0
319787,120.053,-550.017,0,0
321088,118.019,-545.884,0,0
322390,115.653,-542.163,0,0
323691,113.157,-538.762,0,0
324993,110.347,-535.176,0,0
326295,108.38,-531.601,0,0
327596,106.294,-529.224,0,0
328898,103.228,-526.976,0,0
330200,99.8719,-524.436,0,0
331501.125,96.2509,-521.884,0,0
332802.75,91.9095,-519.301,0,0
334104.375,86.8107,-515.697,0,0
335406.0,81.9142,-510.978,0,0
336707.625,77.3242,-505.578,0,0
338009.25,73.5354,-499.194,0,0
339310.875,70.5821,-492.637,0,0
340612.5,68.2676,-485.907,0,0
341914.125,66.6251,-478.825,0,0
343215.75,66.2408,-471.923,0,0
344517.375,66.7912,-465.621,0,0
345819.0,67.7232,-460.513,0,0
347121,68.2048,-456.423,0,0
348422,67.5532,-452.566,0,0
349724,66.4813,-447.603,0,0
351025,65.8002,-441.895,0,0
352327,66.3701,-435.436,0,0
353629,68.3877,-429.709,0,0
354930,70.9905,-425.323,0,0
356232,73.4856,-422.423,0,0
357534,74.0669,-420.47,0,0
358835,73.2041,-417.176,0,0
360137,72.9047,-412.111,0,0
361438,74.0388,-406.528,0,0
362740.1,76.4248,-401.464,0,0
364041.725,79.3037,-397.105,0,0
365343.35,82.8618,-393.422,0,0
366644.975,86.458,-391.359,0,0
367946.6,89.211,-389.64,0,0
369248.225,91.7866,-388.426,0,0
370549.85,93.6841,-388.246,0,0
371851.475,93.3983,-387.87,0,0
373153.1,92.6449,-385.254,0,0
374454.725,93.3497,-381.7,0,0
375756.35,94.9143,-378.735,0,0
377057.975,96.1803,-376.414,0,0
378359.6,97.0523,-373.262,0,0
379661,98.9768,-369.762,0,0
380963,101.394,-366.837,0,0
382264,103.767,-364.113,0,0
383566,106.521,-361.51,0,0
384868,109.568,-359.237,0,0
386169,112.242,-357.472,0,0
387471,114.934,-355.387,0,0
388773,117.695,-352.619,0,0
390074,122.329,-349.783,0,0
391376,127.473,-348.78,0,0
392677,132.069,-348.471,0,0
393979,136.166,-348.309,0,0
395280.7,140.701,-347.3,0,0
396582.325,147.185,-346.508,0,0
397883.95,155.761,-347.817,0,0
399185.575,165.147,-353.114,0,0
400006.6,170.219,-359.167,0,0

File: sample_8.csv
Frequency (Hz),Impedance (ohms),Phase (Radians),Temperature (C),Humidity (%)
10000.0,309.702,-10987.9,0,0
11301.625,274.3,-9737.89,0,0
12603.25,252.384,-8744.62,0,0
13904.875,224.418,-7942.63,0,0
15206.5,203.594,-7267.7,0,0
16508.125,188.284,-6700.35,0,0
17809.75,174.689,-6213.28,0,0
19111.375,166.858,-5789.79,0,0
20413.0,159.753,-5427.72,0,0
21714.625,149.169,-5107.09,0,0
23016.25,143.667,-4823.92,0,0
24317.875,131.809,-4566.42,0,0
25619.5,125.09,-4333.03,0,0
26921.1,119.861,-4122.1,0,0
28222.7,117.134,-3931.94,0,0
29524.4,113.641,-3758.79,0,0
30826,109.198,-3600.97,0,0
32127.6,105.108,-3452.95,0,0
33429.2,105.167,-3315.62,0,0
34730.9,106.145,-3190.97,0,0
36032.5,109.417,-3080.46,0,0
37334.1,105.703,-2980.37,0,0
38635.7,95.8453,-2883.75,0,0
39937.4,87.9439,-2786.79,0,0
41239,85.1353,-2696.23,0,0
42540.6,82.1876,-2610.95,0,0
43842.225,81.3822,-2533.11,0,0
45143.85,77.5715,-2458.39,0,0
46445.475,74.4741,-2387.36,0,0
47747.1,72.6756,-2320.05,0,0
49048.725,70.6157,-2256.54,0,0
50350.35,68.7792,-2195.49,0,0
51651.975,67.8289,-2137.26,0,0
52953.6,67.393,-2082.5,0,0
54255.225,66.2923,-2032.48,0,0
55556.85,63.2837,-1982.9,0,0
56858.475,61.0994,-1933.98,0,0
58160.1,60.1127,-1887.31,0,0
59461.7,59.5149,-1843.46,0,0
60763.3,58.1965,-1800.67,0,0
62065,57.6903,-1759.76,0,0
63366.6,58.0614,-1719.93,0,0
64668.2,58.5893,-1683.57,0,0
65969.8,57.8715,-1648.66,0,0
67271.5,55.8214,-1614.13,0,0
68573.1,54.894,-1580.03,0,0
69874.7,54.6854,-1546.92,0,0
71176.3,54.5855,-1515.34,0,0
72478,54.7295,-1485.43,0,0
73779.6,54.0837,-1456.34,0,0
75081.2,53.1877,-1427.8,0,0
76382.825,52.9092,-1399.74,0,0
77684.45,52.5717,-1372.98,0,0
78986.075,51.9477,-1346.56,0,0
80287.7,51.546,-1320.45,0,0
81589.325,51.5467,-1294.64,0,0
82890.95,52.468,-1269.67,0,0
84192.575,53.6876,-1245.81,0,0
85494.2,54.5332,-1224.08,0,0
86795.825,53.9975,-1200.88,0,0
88097.45,54.7875,-1178.39,0,0
89399.075,55.4406,-1156.03,0,0
90700.7,57.3021,-1133.28,0,0
92002.3,61.5105,-1112.26,0,0
93303.9,65.092,-1094.35,0,0
94605.6,65.1998,-1076.27,0,0
95907.2,67.1346,-1056.47,0,0
97208.8,70.6905,-1037.06,0,0
98510.4,75.7042,-1019.39,0,0
99812.1,80.6263,-1004.87,0,0
101114,85.034,-991.583,0,0
102415,87.3457,-980.444,0,0
103717,86.5608,-969.096,0,0
105019,85.6954,-955.99,0,0
106320.175,84.6831,-941.534,0,0
107621.8,84.947,-927.832,0,0
108923.425,84.3898,-913.345,0,0
110225.05,85.6224,-899.251,0,0
111526.675,86.3087,-886.397,0,0
112828.3,87.0326,-874.17,0,0
114129.925,87.0455,-862.294,0,0
115431.55,86.8283,-850.045,0,0
116733.175,85.0115,-838.074,0,0
118034.8,84.7047,-824.696,0,0
119336.425,84.2457,-812.271,0,0
120638.05,82.9457,-799.534,0,0
121939.675,82.2251,-786.269,0,0
123241,81.5695,-773.113,0,0
124543,81.073,-759.435,0,0
125845,80.8666,-745.775,0,0
127146,81.2059,-731.67,0,0
128448,82.0871,-717.849,0,0
129749,83.2869,-704.666,0,0
131051,84.4643,-690.927,0,0
132353,85.9234,-678.292,0,0
133654,86.4367,-665.249,0,0
134956,87.5741,-650.939,0,0
136258,90.7806,-637.63,0,0
137559,91.3096,-626.259,0,0
138860.775,90.3959,-611.087,0,0
140162.4,92.4905,-594.822,0,0
141464.025,95.3369,-579.09,0,0
142765.65,98.285,-562.509,0,0
144067.275,102.857,-544.983,0,0
145368.9,109.172,-526.559,0,0
146670.525,118.156,-508.858,0,0
147972.15,128.291,-492.956,0,0
149273.775,139.801,-473.992,0,0
150575.4,158.411,-456.377,0,0
151877.025,183.86,-448.127,0,0
153178.65,201.997,-451.099,0,0
154480,210.066,-454.433,0,0
155782,220.476,-448.563,0,0
157084,227.098,-459.206,0,0
158385,220.428,-450.848,0,0
159687,230.826,-442.455,0,0
160988,229.89,-441.144,0,0
162290,234.015,-425.857,0,0
163592,246.771,-418.539,0,0
164893,256.836,-416.316,0,0
166195,260.895,-422.075,0,0
167497,250.493,-417.952,0,0
168798,246.602,-403.581,0,0
170100,247.34,-385.419,0,0
171401.375,249.73,-367.984,0,0
172703.0,259.65,-343.465,0,0
174004.625,275.784,-327.496,0,0
175306.25,283.55,-315.793,0,0
176607.875,292.256,-289.679,0,0
177909.5,311.525,-264.175,0,0
179211.125,339.291,-237.637,0,0
180512.75,378.839,-215.357,0,0
181814.375,424.202,-206.516,0,0
183116.0,468.567,-212.466,0,0
184417.625,496.814,-222.901,0,0
185719.25,526.68,-224.971,0,0
187021,559.668,-229.517,0,0
188322,593.452,-233.573,0,0
189624,629.3,-246.179,0,0
190926,664.319,-250.673,0,0
192227,713.262,-267.607,0,0
193529,758.285,-278.971,0,0
194831,833.663,-310.442,0,0
196132,902.222,-378.99,0,0
197434,945.936,-478.35,0,0
198735,948.795,-589.659,0,0
200037,921.879,-690.958,0,0
201339,863.453,-771.791,0,0
202640.35,787.727,-835.047,0,0
203941.975,709.597,-848.602,0,0
205243.6,651.22,-851.853,0,0
206545.225,595.147,-838.893,0,0
207846.85,571.082,-810.047,0,0
209148.475,563.02,-802.022,0,0
210450.1,554.234,-797.251,0,0
211751.725,549.163,-798.974,0,0
213053.35,544.713,-808.068,0,0
214354.975,534.652,-822.426,0,0
215656.6,519.672,-837.45,0,0
216958.225,497.883,-850.718,0,0
218259.85,474.737,-859.367,0,0
219561,449.249,-864.641,0,0
220863,422.251,-865.361,0,0
222165,397.979,-856.585,0,0
223466,382.565,-846.153,0,0
224768,374.697,-838.336,0,0
226070,369.775,-840.287,0,0
227371,356.961,-847.474,0,0
228673,337.822,-851.532,0,0
229974,318.954,-852.526,0,0
231276,296.006,-852.439,0,0
232578,272.733,-846.695,0,0
233879,250.072,-837.367,0,0
235180.95,228.531,-822.898,0,0
236482.575,212.964,-804.339,0,0
237784.2,202.633,-785.863,0,0
239085.825,197.012,-767.927,0,0
240387.45,195.693,-755.474,0,0
241689.075,192.267,-747.584,0,0
242990.7,184.742,-739.086,0,0
244292.325,178.446,-727.271,0,0
245593.95,174.485,-716.027,0,0
246895.575,171.703,-705.083,0,0
248197.2,168.516,-695.68,0,0
249498.825,165.198,-684.81,0,0
250800,163.696,-672.356,0,0
252102,166.848,-660.476,0,0
253404,171.662,-654.293,0,0
254705,172.284,-650.483,0,0
256007,170.796,-645.215,0,0
257309,169.18,-637.328,0,0
258610,170.239,-627.644,0,0
259912,174.644,-618.809,0,0
261213,180.128,-613.065,0,0
262515,185.897,-609.107,0,0
263817,189.742,-606.421,0,0
265118,192.786,-601.07,0,0
266420,200.782,-593.286,0,0
267721.55,217.216,-588.914,0,0
269023.175,237.775,-596.634,0,0
270324.8,252.326,-615.986,0,0
271626.425,256.551,-643.053,0,0
272928.05,246.239,-671.317,0,0
274229.675,221.547,-691.586,0,0
275531.3,192.212,-695.989,0,0
276832.925,169.648,-689.119,0,0
278134.55,153.78,-679.494,0,0
279436.175,141.459,-668.536,0,0
280737.8,134.449,-656.091,0,0
282039.425,132.012,-646.291,0,0
283341,130.584,-640.399,0,0
284643,127.172,-635.136,0,0
285944,125.844,-628.05,0,0
287246,128.87,-624.463,0,0
288548,129.815,-628.71,0,0
289849,122.312,-633.462,0,0
291151,111.2,-632.422,0,0
292452,101.519,-628.025,0,0
293754,93.0651,-621.599,0,0
295056,85.8773,-613.935,0,0
296357,80.7808,-605.417,0,0
297659,76.8568,-597.45,0,0
298960.525,73.6746,-589.214,0,0
300262.15,71.6214,-580.814,0,0
301563.775,71.2428,-572.534,0,0
302865.4,72.1951,-565.577,0,0
304167.025,73.6862,-559.979,0,0
305468.65,75.184,-555.619,0,0
306770.275,76.5501,-552.433,0,0
308071.9,77.3496,-550.095,0,0
309373.525,77.209,-549.029,0,0
310675.15,75.3089,-547.392,0,0
311976.775,73.3588,-544.986,0,0
313278.4,71.2431,-542.544,0,0
314580,68.6129,-539.708,0,0
315882,66.1101,-536.017,0,0
317183,64.2004,-531.809,0,0
318485,62.9357,-527.769,0,0
319787,62.2437,-523.981,0,0
321088,61.6634,-521.285,0,0
322390,60.3556,-519.003,0,0
323691,58.4756,-516.658,0,0
324993,55.8419,-514.014,0,0
326295,53.0787,-510.4,0,0
327596,50.8593,-506.294,0,0
328898,48.9916,-502.075,0,0
330200,47.3804,-497.796,0,0
331501.125,46.0041,-493.383,0,0
332802.75,44.9315,-488.903,0,0
334104.375,44.3078,-484.473,0,0
335406.0,44.1337,-480.238,0,0
336707.625,44.0408,-476.629,0,0
338009.25,43.7938,-473.271,0,0
339310.875,43.3443,-470.06,0,0
340612.5,42.6828,-466.903,0,0
341914.125,41.7273,-463.582,0,0
343215.75,40.8924,-459.756,0,0
344517.375,40.3151,-455.896,0,0
345819.0,39.8848,-451.891,0,0
347121,39.8689,-447.861,0,0
348422,40.1975,-443.952,0,0
349724,40.7549,-440.281,0,0
351025,41.506,-436.819,0,0
352327,42.3433,-433.679,0,0
353629,43.1677,-430.947,0,0
354930,43.7609,-428.428,0,0
356232,44.249,-426.034,0,0
357534,44.5553,-423.707,0,0
358835,44.69,-421.226,0,0
360137,44.9879,-418.738,0,0
361438,45.2366,-416.257,0,0
362740.1,45.5389,-413.826,0,0
364041.725,45.8016,-411.428,0,0
365343.35,46.1306,-409.01,0,0
366644.975,46.5096,-406.695,0,0
367946.6,46.7753,-404.449,0,0
369248.225,47.1877,-401.928,0,0
370549.85,48.1188,-399.616,0,0
371851.475,49.1029,-398.115,0,0
373153.1,49.536,-396.996,0,0
374454.725,49.3924,-395.741,0,0
375756.35,48.9156,-394.041,0,0
377057.975,48.9238,-391.988,0,0
378359.6,49.0681,-390.641,0,0
379661,48.3701,-389.078,0,0
380963,48.1632,-386.76,0,0
382264,48.6,-385.45,0,0
383566,47.834,-384.538,0,0
384868,46.4828,-382.988,0,0
386169,45.0457,-380.732,0,0
387471,43.9198,-377.912,0,0
388773,43.2555,-374.853,0,0
390074,43.1033,-371.808,0,0
391376,43.1053,-369.153,0,0
392677,43.009,-366.554,0,0
393979,42.8184,-363.909,0,0
395280.7,42.7908,-361.035,0,0
396582.325,43.0548,-358.199,0,0
397883.95,43.437,-355.56,0,0
399185.575,43.803,-353.03,0,0
400006.6,43.9925,-351.465,0,0