Folder: ML_Dmg_Mehdi_Dataset/Accelerated corrosion test data/2025-10-21_18-00-04

Note: README.md
# ML_Dmg_Mehdi_Dataset

File: sample_1.csv
Frequency (Hz),Impedance (ohms),Phase (Radians),Temperature (C),Humidity (%)
10000.0,240.808,-12223.2,0,0
11301.625,214.531,-10826.7,0,0
12603.25,194.881,-9724.79,0,0
13904.875,183.002,-8799.12,0,0
15206.5,190.529,-8065.65,0,0
16508.125,154.296,-7441.63,0,0
17809.75,146.481,-6902.55,0,0
19111.375,135.772,-6434.46,0,0
20413.0,156.55,-5989.77,0,0
21714.625,136.548,-5673.16,0,0
23016.25,122.225,-5371.08,0,0
24317.875,112.996,-5078.1,0,0
25619.5,104.298,-4812.98,0,0
26921.1,113.6,-4562.32,0,0
28222.7,110.171,-4359.82,0,0
29524.4,107.476,-4194.82,0,0
30826,100.739,-4005.74,0,0
32127.6,97.4864,-3848.75,0,0
33429.2,89.0715,-3704.41,0,0
34730.9,81.8143,-3562.1,0,0
36032.5,77.8673,-3430.8,0,0
37334.1,75.0956,-3308.6,0,0
38635.7,72.7093,-3194.49,0,0
39937.4,71.0132,-3087.75,0,0
41239,72.2171,-2988.46,0,0
42540.6,70.7153,-2896.3,0,0
43842.225,67.7491,-2809.5,0,0
45143.85,68.2346,-2727.86,0,0
46445.475,65.2308,-2650.92,0,0
47747.1,63.9979,-2577.34,0,0
49048.725,61.5218,-2507,0,0
50350.35,59.3332,-2440.39,0,0
51651.975,58.6704,-2376.78,0,0
52953.6,57.4554,-2315.75,0,0
54255.225,56.5415,-2258.69,0,0
55556.85,55.5303,-2203.09,0,0
56858.475,54.6964,-2150.01,0,0
58160.1,54.4255,-2099.2,0,0
59461.7,54.1758,-2051.23,0,0
60763.3,54.3119,-2005.38,0,0
62065,52.9821,-1961.25,0,0
63366.6,52.2973,-1917.75,0,0
64668.2,52.8103,-1875.43,0,0
65969.8,54.9424,-1837.65,0,0
67271.5,53.567,-1801.16,0,0
68573.1,52.8858,-1765.04,0,0
69874.7,51.978,-1731.31,0,0
71176.3,49.9867,-1696.56,0,0
72478,48.2005,-1662.99,0,0
73779.6,47.9164,-1629.47,0,0
75081.2,48.272,-1597.17,0,0
76382.825,48.8587,-1566.08,0,0
77684.45,49.989,-1536.65,0,0
78986.075,51.6072,-1509.12,0,0
80287.7,50.8156,-1482.6,0,0
81589.325,50.1527,-1454.81,0,0
82890.95,50.8,-1427.96,0,0
84192.575,52.3447,-1401.8,0,0
85494.2,54.3268,-1376.81,0,0
86795.825,55.3885,-1353.69,0,0
88097.45,55.8072,-1330.29,0,0
89399.075,57.6429,-1305.64,0,0
90700.7,60.8292,-1282.53,0,0
92002.3,66.9761,-1261.23,0,0
93303.9,74.6225,-1243.3,0,0
94605.6,73.2594,-1236.89,0,0
95907.2,67.0158,-1217.93,0,0
97208.8,65.1909,-1197.54,0,0
98510.4,64.3405,-1177.34,0,0
99812.1,63.3349,-1157.9,0,0
101114,62.9271,-1137.68,0,0
102415,63.4125,-1115.81,0,0
103717,68.3134,-1094.71,0,0
105019,74.909,-1077.64,0,0
106320.175,80.4621,-1061.31,0,0
107621.8,86.8674,-1048.1,0,0
108923.425,91.2491,-1036.89,0,0
110225.05,93.8797,-1028.05,0,0
111526.675,94.0414,-1015.81,0,0
112828.3,97.6548,-1005.96,0,0
114129.925,96.6007,-998.903,0,0
115431.55,93.3518,-989.775,0,0
116733.175,88.7785,-978.332,0,0
118034.8,83.9486,-964.547,0,0
119336.425,81.7697,-949.045,0,0
120638.05,81.7502,-934.608,0,0
121939.675,80.1931,-922.014,0,0
123241,78.7314,-906.993,0,0
124543,78.6981,-892.121,0,0
125845,79.2875,-877.422,0,0
127146,80.249,-862.971,0,0
128448,82.0858,-848.07,0,0
129749,84.926,-834.013,0,0
131051,89.4782,-820.725,0,0
132353,93.7914,-809.725,0,0
133654,96.7834,-798.994,0,0
134956,100.129,-788.043,0,0
136258,103.422,-777.578,0,0
137559,108.682,-768.114,0,0
138860.775,111.14,-762.489,0,0
140162.4,110.263,-754.381,0,0
141464.025,109.939,-744.503,0,0
142765.65,110.229,-733.564,0,0
144067.275,111.752,-721.905,0,0
145368.9,114.346,-710.657,0,0
146670.525,117.656,-700.872,0,0
147972.15,119.622,-692.346,0,0
149273.775,121.068,-682.403,0,0
150575.4,122.308,-673.682,0,0
151877.025,121.06,-662.705,0,0
153178.65,120.811,-647.771,0,0
154480,124.306,-631.639,0,0
155782,130.839,-614.701,0,0
157084,142.927,-599.051,0,0
158385,154.8,-590.235,0,0
159687,163.354,-578.309,0,0
160988,181.502,-566.008,0,0
162290,201.094,-565.772,0,0
163592,211.642,-567.057,0,0
164893,225.663,-566.395,0,0
166195,239.559,-572.504,0,0
167497,247.892,-583.138,0,0
168798,248.335,-596.408,0,0
170100,240.193,-604.919,0,0
171401.375,231.73,-603.61,0,0
172703.0,227.908,-599.203,0,0
174004.625,225.157,-596.366,0,0
175306.25,223.607,-592.44,0,0
176607.875,221.825,-590.656,0,0
177909.5,219.311,-586.718,0,0
179211.125,215.674,-585.878,0,0
180512.75,207.23,-582.764,0,0
181814.375,199.428,-574.039,0,0
183116.0,192.638,-562.65,0,0
184417.625,188.044,-548.927,0,0
185719.25,186.406,-533.699,0,0
187021,186.717,-518.819,0,0
188322,190.309,-503.271,0,0
189624,193.756,-489.819,0,0
190926,196.565,-474.566,0,0
192227,201.979,-457.427,0,0
193529,210.533,-439.595,0,0
194831,221.731,-422.996,0,0
196132,235.115,-406.183,0,0
197434,251.081,-390.816,0,0
198735,268.192,-376.227,0,0
200037,287.146,-360.401,0,0
201339,310.717,-344.517,0,0
202640.35,342.243,-326.956,0,0
203941.975,384.973,-316.443,0,0
205243.6,436.102,-321.751,0,0
206545.225,482.38,-345.933,0,0
207846.85,514.453,-381.288,0,0
209148.475,534.04,-421.786,0,0
210450.1,534.222,-462.789,0,0
211751.725,520.969,-482.772,0,0
213053.35,520.093,-484.716,0,0
214354.975,532.617,-494.106,0,0
215656.6,543.235,-509.044,0,0
216958.225,553.078,-525.539,0,0
218259.85,561.823,-541.615,0,0
219561,575.552,-556.382,0,0
220863,594.434,-579.814,0,0
222165,611.775,-614.969,0,0
223466,618.814,-661.112,0,0
224768,611.266,-709.374,0,0
226070,593.914,-754.825,0,0
227371,563.749,-797.133,0,0
228673,524.204,-830.576,0,0
229974,478.337,-849.568,0,0
231276,435.641,-855.19,0,0
232578,399.184,-852.645,0,0
233879,370.674,-845.916,0,0
235180.95,348.552,-841.917,0,0
236482.575,324.466,-838.927,0,0
237784.2,300.695,-833.731,0,0
239085.825,277.572,-825.221,0,0
240387.45,257.778,-814.374,0,0
241689.075,240.752,-803.003,0,0
242990.7,225.695,-790.733,0,0
244292.325,213.772,-779.25,0,0
245593.95,201.81,-769.272,0,0
246895.575,189.688,-758.204,0,0
248197.2,179.212,-745.629,0,0
249498.825,170.345,-732.953,0,0
250800,163.293,-720.358,0,0
252102,157.253,-708.656,0,0
253404,151.339,-696.383,0,0
254705,147.511,-683.339,0,0
256007,145.433,-671.753,0,0
257309,143.471,-660.467,0,0
258610,142.607,-648.744,0,0
259912,144.212,-637.026,0,0
261213,148.044,-627.434,0,0
262515,152.489,-620.003,0,0
263817,157.288,-614.139,0,0
265118,163.31,-609.941,0,0
266420,170.145,-609.787,0,0
267721.55,174.422,-615.254,0,0
269023.175,171.046,-622.907,0,0
270324.8,161.401,-626.172,0,0
271626.425,150.063,-622.632,0,0
272928.05,142.517,-614.041,0,0
274229.675,139.124,-605.334,0,0
275531.3,137.593,-597.07,0,0
276832.925,138.313,-589.667,0,0
278134.55,140.167,-584.76,0,0
279436.175,140.816,-581.839,0,0
280737.8,140.276,-578.275,0,0
282039.425,140.558,-575.537,0,0
283341,138.839,-573.091,0,0
284643,137.645,-569.631,0,0
285944,135.806,-567.076,0,0
287246,131.904,-562.735,0,0
288548,129.887,-555.044,0,0
289849,132.056,-547.622,0,0
291151,135.096,-544.348,0,0
292452,135.71,-541.969,0,0
293754,135.005,-538.279,0,0
295056,134.954,-532.978,0,0
296357,136.695,-526.732,0,0
297659,140.64,-521.219,0,0
298960.525,145.847,-517.469,0,0
300262.15,151.099,-515.193,0,0
301563.775,157.19,-513.839,0,0
302865.4,163.403,-515.205,0,0
304167.025,168.161,-517.703,0,0
305468.65,172.26,-521.397,0,0
306770.275,176.013,-525.983,0,0
308071.9,177.911,-533.308,0,0
309373.525,176.603,-540.145,0,0
310675.15,174.213,-546.438,0,0
311976.775,169.627,-552.467,0,0
313278.4,163.622,-556.599,0,0
314580,157.885,-559.635,0,0
315882,151.48,-562.499,0,0
317183,143.796,-564.292,0,0
318485,135.472,-564.595,0,0
319787,127.104,-563.034,0,0
321088,119.185,-560.02,0,0
322390,111.982,-555.038,0,0
323691,106.991,-548.83,0,0
324993,104.28,-542.991,0,0
326295,102.813,-538.321,0,0
327596,101.803,-535.113,0,0
328898,100.223,-533.005,0,0
330200,98.0663,-531.279,0,0
331501.125,95.3132,-529.643,0,0
332802.75,91.9635,-527.787,0,0
334104.375,88.0606,-525.482,0,0
335406.0,83.9829,-522.41,0,0
336707.625,80.3878,-518.74,0,0
338009.25,77.2525,-514.776,0,0
339310.875,74.4059,-510.622,0,0
340612.5,72.0713,-506.466,0,0
341914.125,69.8585,-502.54,0,0
343215.75,67.665,-498.524,0,0
344517.375,65.623,-494.578,0,0
345819.0,63.4241,-490.469,0,0
347121,61.373,-485.953,0,0
348422,59.9488,-481.174,0,0
349724,58.9437,-476.567,0,0
351025,58.1552,-472.207,0,0
352327,57.6425,-467.868,0,0
353629,57.2125,-463.869,0,0
354930,56.8015,-459.886,0,0
356232,56.557,-455.977,0,0
357534,56.3101,-452.164,0,0
358835,56.123,-448.251,0,0
360137,56.2132,-444.355,0,0
361438,56.3972,-440.664,0,0
362740.1,56.5641,-437.087,0,0
364041.725,56.8745,-433.314,0,0
365343.35,57.4649,-429.618,0,0
366644.975,58.0347,-426.31,0,0
367946.6,58.2237,-422.529,0,0
369248.225,59.1007,-418.241,0,0
370549.85,60.8994,-413.974,0,0
371851.475,63.557,-410.118,0,0
373153.1,66.8017,-407.397,0,0
374454.725,69.9318,-405.625,0,0
375756.35,72.7233,-404.564,0,0
377057.975,75.1756,-403.972,0,0
378359.6,77.2217,-403.964,0,0
379661,78.503,-403.976,0,0
380963,80.077,-403.474,0,0
382264,82.1716,-404.319,0,0
383566,83.0738,-406.411,0,0
384868,82.1022,-408.624,0,0
386169,80.081,-409.858,0,0
387471,77.5374,-410.212,0,0
388773,74.7137,-409.372,0,0
390074,72.6437,-407.818,0,0
391376,70.9966,-406.453,0,0
392677,69.1013,-405.323,0,0
393979,66.7171,-403.72,0,0
395280.7,64.2767,-401.495,0,0
396582.325,61.9837,-398.602,0,0
397883.95,60.2023,-395.057,0,0
399185.575,59.1849,-391.452,0,0
400006.6,58.8236,-389.208,0,0

File: sample_2.csv
Frequency (Hz),Impedance (ohms),Phase (Radians),Temperature (C),Humidity (%)
10000.0,228.809,-11482.8,0,0
11301.625,203.539,-10169.7,0,0
12603.25,183.319,-9130,0,0
13904.875,185.269,-8274.59,0,0
15206.5,167.015,-7585.4,0,0
16508.125,142.688,-6989.39,0,0
17809.75,132.804,-6479.1,0,0
19111.375,128.209,-6037.54,0,0
20413.0,117.86,-5652.3,0,0
21714.625,128.57,-5322.41,0,0
23016.25,112.411,-5024.9,0,0
24317.875,102.449,-4757.87,0,0
25619.5,97.4897,-4512.94,0,0
26921.1,94.8663,-4293.84,0,0
28222.7,89.6633,-4092.97,0,0
29524.4,92.8757,-3908.37,0,0
30826,87.8038,-3754.13,0,0
32127.6,81.7806,-3599.08,0,0
33429.2,79.5036,-3460.28,0,0
34730.9,75.2922,-3328.63,0,0
36032.5,72.8893,-3206.97,0,0
37334.1,70.4445,-3092.93,0,0
38635.7,68.4323,-2987.38,0,0
39937.4,66.7212,-2887.92,0,0
41239,65.2622,-2794.47,0,0
42540.6,64.3038,-2707.48,0,0
43842.225,62.7906,-2625.41,0,0
45143.85,61.5491,-2547.24,0,0
46445.475,61.219,-2474.65,0,0
47747.1,60.133,-2404.94,0,0
49048.725,60.0773,-2340.84,0,0
50350.35,57.5775,-2278.39,0,0
51651.975,56.1407,-2218.88,0,0
52953.6,54.7633,-2161.34,0,0
54255.225,53.9609,-2106.44,0,0
55556.85,53.5446,-2054.2,0,0
56858.475,53.4585,-2004.16,0,0
58160.1,53.7573,-1956.63,0,0
59461.7,54.2543,-1910.41,0,0
60763.3,56.1441,-1867.7,0,0
62065,58.6483,-1829.28,0,0
63366.6,55.2992,-1792.34,0,0
64668.2,52.3014,-1754.21,0,0
65969.8,50.486,-1714.78,0,0
67271.5,50.7811,-1677.24,0,0
68573.1,53.5518,-1643.21,0,0
69874.7,55.3625,-1612.48,0,0
71176.3,52.1686,-1584.66,0,0
72478,47.4957,-1554.05,0,0
73779.6,44.921,-1520.76,0,0
75081.2,44.9923,-1488.32,0,0
76382.825,46.6964,-1457.83,0,0
77684.45,49.5453,-1429.42,0,0
78986.075,52.627,-1405.24,0,0
80287.7,51.5647,-1383.56,0,0
81589.325,48.8306,-1358.41,0,0
82890.95,47.6838,-1332.64,0,0
84192.575,48.4523,-1307.88,0,0
85494.2,49.0096,-1284.24,0,0
86795.825,50.1186,-1261.94,0,0
88097.45,50.6015,-1240.58,0,0
89399.075,51.0549,-1219.18,0,0
90700.7,50.9199,-1198.79,0,0
92002.3,52.6511,-1177.27,0,0
93303.9,54.7361,-1158.46,0,0
94605.6,54.8968,-1142.32,0,0
95907.2,54.0703,-1122.37,0,0
97208.8,57.2506,-1105.04,0,0
98510.4,56.934,-1091.27,0,0
99812.1,53.038,-1075.98,0,0
101114,50.14,-1058.65,0,0
102415,46.657,-1038.61,0,0
103717,45.8181,-1017.45,0,0
105019,49.2132,-997.137,0,0
106320.175,53.7127,-979.897,0,0
107621.8,57.8051,-967.948,0,0
108923.425,56.0522,-956.168,0,0
110225.05,52.7131,-941.015,0,0
111526.675,51.3726,-923.007,0,0
112828.3,51.6966,-905.603,0,0
114129.925,53.1247,-888.395,0,0
115431.55,55.7332,-871.655,0,0
116733.175,58.971,-855.981,0,0
118034.8,62.8772,-841.259,0,0
119336.425,67.3089,-828.794,0,0
120638.05,70.2074,-818.393,0,0
121939.675,70.1393,-807.739,0,0
123241,69.4235,-795.104,0,0
124543,69.2021,-781.994,0,0
125845,68.6553,-767.626,0,0
127146,69.6215,-752.235,0,0
128448,72.1939,-737.555,0,0
129749,75.2868,-723.894,0,0
131051,78.5996,-711.275,0,0
132353,80.1451,-699.447,0,0
133654,81.5596,-686.374,0,0
134956,82.3625,-672.893,0,0
136258,84.1882,-658.051,0,0
137559,86.9896,-642.955,0,0
138860.775,89.7412,-628.405,0,0
140162.4,92.206,-612.233,0,0
141464.025,97.545,-593.502,0,0
142765.65,106.567,-576.506,0,0
144067.275,115.499,-560.778,0,0
145368.9,125.73,-545.299,0,0
146670.525,137.176,-530.141,0,0
147972.15,150.955,-514.325,0,0
149273.775,170.759,-498.269,0,0
150575.4,198.77,-490.766,0,0
151877.025,224.352,-497.663,0,0
153178.65,237.877,-512.673,0,0
154480,239.982,-524.376,0,0
155782,239.582,-529.365,0,0
157084,235.641,-532.73,0,0
158385,232.054,-530.791,0,0
159687,228.81,-525.69,0,0
160988,229.431,-518.845,0,0
162290,238.173,-516.768,0,0
163592,233.498,-524.074,0,0
164893,219.821,-522.576,0,0
166195,206.656,-510.226,0,0
167497,198.576,-493.981,0,0
168798,192.485,-472.699,0,0
170100,192.861,-449.477,0,0
171401.375,196.682,-427.266,0,0
172703.0,204.396,-403.829,0,0
174004.625,215.009,-380.419,0,0
175306.25,231.822,-357.138,0,0
176607.875,254.65,-337.034,0,0
177909.5,281.706,-325.147,0,0
179211.125,304.087,-322.231,0,0
180512.75,314.627,-323.385,0,0
181814.375,320.38,-308.229,0,0
183116.0,335.089,-288.891,0,0
184417.625,358.259,-265.582,0,0
185719.25,388.981,-247.908,0,0
187021,424.162,-232.241,0,0
188322,465.076,-223.227,0,0
189624,503.172,-219.737,0,0
190926,546.901,-210.994,0,0
192227,605.316,-207.65,0,0
193529,675.719,-220.279,0,0
194831,743.834,-259.027,0,0
196132,799.86,-313.677,0,0
197434,845.183,-375.996,0,0
198735,880.513,-453.634,0,0
200037,894.951,-536.178,0,0
201339,891.341,-624.017,0,0
202640.35,861.277,-701.218,0,0
203941.975,821.512,-766.53,0,0
205243.6,775.024,-821.662,0,0
206545.225,712.104,-857.549,0,0
207846.85,656.45,-873.06,0,0
209148.475,618.691,-880.814,0,0
210450.1,578.426,-897.679,0,0
211751.725,529.213,-906.419,0,0
213053.35,484.036,-897.342,0,0
214354.975,449.249,-884.354,0,0
215656.6,420.047,-869.563,0,0
216958.225,397.424,-851.721,0,0
218259.85,381.461,-835.157,0,0
219561,369.52,-820.064,0,0
220863,360.881,-806.751,0,0
222165,356.86,-795.757,0,0
223466,353.316,-789.211,0,0
224768,350.247,-784.072,0,0
226070,347.498,-780.59,0,0
227371,346.358,-779.236,0,0
228673,346.28,-783.122,0,0
229974,340.62,-792.092,0,0
231276,329.433,-799.092,0,0
232578,315.96,-805.333,0,0
233879,299.296,-808.38,0,0
235180.95,282.158,-808.236,0,0
236482.575,265.711,-806.02,0,0
237784.2,248.479,-801.724,0,0
239085.825,233.253,-794.63,0,0
240387.45,218.676,-786.657,0,0
241689.075,205.954,-776.75,0,0
242990.7,196.057,-765.865,0,0
244292.325,188.932,-756.933,0,0
245593.95,181.785,-751.424,0,0
246895.575,170.291,-747.111,0,0
248197.2,155.992,-738.409,0,0
249498.825,143.036,-726.124,0,0
250800,131.903,-710.648,0,0
252102,124.904,-692.931,0,0
253404,121.651,-676.275,0,0
254705,119.809,-660.379,0,0
256007,120.214,-644.172,0,0
257309,123.654,-629.605,0,0
258610,128.545,-616.544,0,0
259912,135.175,-605.244,0,0
261213,143.191,-596.319,0,0
262515,151.496,-590.277,0,0
263817,158.923,-586.403,0,0
265118,166.1,-583.932,0,0
266420,172.03,-583.534,0,0
267721.55,176.556,-583.878,0,0
269023.175,179.296,-585.198,0,0
270324.8,179.627,-585.028,0,0
271626.425,180.938,-582.169,0,0
272928.05,184.726,-578.234,0,0
274229.675,193.048,-575.324,0,0
275531.3,205.662,-579.235,0,0
276832.925,213.973,-593.191,0,0
278134.55,212.257,-609.209,0,0
279436.175,203.654,-621.663,0,0
280737.8,192.014,-629.327,0,0
282039.425,180.22,-634.237,0,0
283341,164.773,-636.057,0,0
284643,152.252,-631.761,0,0
285944,139.528,-627.974,0,0
287246,125.298,-618.569,0,0
288548,115.613,-601.658,0,0
289849,116.685,-582.054,0,0
291151,127.252,-568.25,0,0
292452,142.483,-565.135,0,0
293754,150.286,-573.826,0,0
295056,147.624,-578.693,0,0
296357,149.605,-577.446,0,0
297659,153.379,-587.49,0,0
298960.525,144.628,-596.742,0,0
300262.15,133.537,-598.728,0,0
301563.775,125.024,-596.049,0,0
302865.4,119.891,-593.345,0,0
304167.025,115.055,-592.939,0,0
305468.65,107.915,-592.891,0,0
306770.275,99.2408,-590.447,0,0
308071.9,91.4159,-585.938,0,0
309373.525,84.5943,-580.393,0,0
310675.15,78.7731,-574.286,0,0
311976.775,73.8572,-567.797,0,0
313278.4,69.8086,-561.124,0,0
314580,66.5604,-554.491,0,0
315882,63.7651,-548.057,0,0
317183,61.3968,-541.531,0,0
318485,59.7649,-535.183,0,0
319787,58.4951,-529.16,0,0
321088,57.1815,-523.327,0,0
322390,56.21,-517.303,0,0
323691,55.5685,-511.205,0,0
324993,55.6298,-504.464,0,0
326295,57.6933,-497.792,0,0
327596,61.1764,-493.513,0,0
328898,63.436,-490.962,0,0
330200,65.5923,-488.913,0,0
331501.125,66.938,-488.264,0,0
332802.75,66.726,-488.355,0,0
334104.375,64.4444,-487.54,0,0
335406.0,61.9278,-485.153,0,0
336707.625,59.8137,-482.063,0,0
338009.25,57.977,-478.546,0,0
339310.875,56.2875,-474.751,0,0
340612.5,54.9868,-470.591,0,0
341914.125,54.0607,-466.237,0,0
343215.75,53.5665,-461.729,0,0
344517.375,53.4794,-457.048,0,0
345819.0,54.0673,-452.592,0,0
347121,55.0142,-448.378,0,0
348422,56.3903,-444.512,0,0
349724,58.1288,-441.016,0,0
351025,60.079,-438.212,0,0
352327,61.7262,-436.154,0,0
353629,62.7297,-434.009,0,0
354930,63.9808,-431.803,0,0
356232,65.3114,-429.567,0,0
357534,67.1141,-427.652,0,0
358835,69.0809,-426.488,0,0
360137,70.6997,-426.211,0,0
361438,71.5641,-426.205,0,0
362740.1,71.7597,-426.332,0,0
364041.725,71.3805,-426.237,0,0
365343.35,70.581,-425.622,0,0
366644.975,69.8297,-424.6,0,0
367946.6,69.5367,-423.268,0,0
369248.225,69.7236,-422.457,0,0
370549.85,69.2184,-422.444,0,0
371851.475,67.9577,-421.84,0,0
373153.1,67.0795,-421.038,0,0
374454.725,65.823,-420.496,0,0
375756.35,64.1701,-419.726,0,0
377057.975,62.5477,-418.497,0,0
378359.6,60.9868,-417.674,0,0
379661,58.0467,-416.595,0,0
380963,55.343,-413.05,0,0
382264,55.3012,-410.333,0,0
383566,54.1468,-409.256,0,0
384868,51.9019,-407.489,0,0
386169,49.6977,-404.769,0,0
387471,47.9338,-401.62,0,0
388773,46.5142,-398.069,0,0
390074,46.0456,-394.349,0,0
391376,46.2935,-391.667,0,0
392677,45.6881,-389.94,0,0
393979,43.9637,-387.649,0,0
395280.7,42.1519,-384.147,0,0
396582.325,41.168,-379.926,0,0
397883.95,41.0722,-375.645,0,0
399185.575,41.6367,-371.717,0,0
400006.6,42.1172,-369.522,0,0