Folder: ML_Dmg_Mehdi_Dataset/Accelerated corrosion test data/2025-10-18_18-00-03

Note: README.md
# ML_Dmg_Mehdi_Dataset

File: sample_1.csv
Frequency (Hz),Impedance (ohms),Phase (Radians),Temperature (C),Humidity (%)
10000.0,241.838,-12200.2,0,0
11301.625,215.202,-10806,0,0
12603.25,195.621,-9706.16,0,0
13904.875,184.819,-8781.28,0,0
15206.5,192.353,-8053.33,0,0
16508.125,155.8,-7426.88,0,0
17809.75,147.63,-6890.65,0,0
19111.375,135.595,-6421.81,0,0
20413.0,161.273,-5979.69,0,0
21714.625,135.394,-5660.97,0,0
23016.25,122.895,-5360.48,0,0
24317.875,113.166,-5067.68,0,0
25619.5,105.052,-4804,0,0
26921.1,116.151,-4554.82,0,0
28222.7,111.682,-4351.81,0,0
29524.4,107.559,-4185.85,0,0
30826,101.58,-3998.32,0,0
32127.6,97.5916,-3841.55,0,0
33429.2,88.609,-3696.38,0,0
34730.9,82.7325,-3555.3,0,0
36032.5,77.9905,-3424.4,0,0
37334.1,75.6582,-3301.93,0,0
38635.7,73.4786,-3188.21,0,0
39937.4,71.5255,-3081.61,0,0
41239,72.8417,-2983.14,0,0
42540.6,71.5839,-2891.14,0,0
43842.225,68.0481,-2803.81,0,0
45143.85,68.8011,-2722.37,0,0
46445.475,65.4942,-2645.33,0,0
47747.1,64.7477,-2571.98,0,0
49048.725,62.0626,-2502.05,0,0
50350.35,59.9152,-2435.57,0,0
51651.975,58.9167,-2372.07,0,0
52953.6,58.0384,-2311.15,0,0
54255.225,56.9906,-2254.23,0,0
55556.85,56.0187,-2198.8,0,0
56858.475,55.2557,-2145.72,0,0
58160.1,54.8088,-2095.07,0,0
59461.7,54.5697,-2047.19,0,0
60763.3,54.8565,-2001.38,0,0
62065,53.319,-1957.19,0,0
63366.6,52.7775,-1913.75,0,0
64668.2,53.3246,-1871.75,0,0
65969.8,55.4194,-1833.97,0,0
67271.5,53.985,-1796.92,0,0
68573.1,53.2422,-1761.5,0,0
69874.7,52.6287,-1727.46,0,0
71176.3,50.6085,-1693.07,0,0
72478,48.857,-1659.31,0,0
73779.6,48.3384,-1626.05,0,0
75081.2,48.7434,-1593.85,0,0
76382.825,49.5742,-1562.78,0,0
77684.45,50.5023,-1533.37,0,0
78986.075,52.2066,-1505.8,0,0
80287.7,51.3124,-1479.43,0,0
81589.325,50.921,-1451.55,0,0
82890.95,51.4826,-1424.72,0,0
84192.575,52.9545,-1398.44,0,0
85494.2,55.131,-1374.15,0,0
86795.825,55.8983,-1350.65,0,0
88097.45,56.5373,-1327.25,0,0
89399.075,58.3585,-1302.77,0,0
90700.7,61.6946,-1279.42,0,0
92002.3,67.6416,-1257.93,0,0
93303.9,75.671,-1240.95,0,0
94605.6,74.508,-1234.38,0,0
95907.2,67.0077,-1215.46,0,0
97208.8,65.1526,-1194.95,0,0
98510.4,64.9273,-1174.66,0,0
99812.1,64.1801,-1155,0,0
101114,63.7411,-1135.09,0,0
102415,63.9347,-1113,0,0
103717,68.649,-1092.02,0,0
105019,75.5145,-1074.73,0,0
106320.175,82.0884,-1058.61,0,0
107621.8,88.0716,-1046.48,0,0
108923.425,92.3746,-1035.17,0,0
110225.05,94.5296,-1027.21,0,0
111526.675,94.7659,-1014.6,0,0
112828.3,96.9692,-1005.09,0,0
114129.925,95.7636,-997.193,0,0
115431.55,92.2741,-987.981,0,0
116733.175,87.4,-976.047,0,0
118034.8,82.7719,-961.373,0,0
119336.425,81.0884,-945.547,0,0
120638.05,81.6048,-931.078,0,0
121939.675,80.4274,-918.534,0,0
123241,78.8776,-903.808,0,0
124543,79.0564,-888.657,0,0
125845,80.157,-873.909,0,0
127146,81.2299,-859.641,0,0
128448,83.6098,-845.404,0,0
129749,86.0831,-831.239,0,0
131051,90.897,-818.169,0,0
132353,94.9756,-807.758,0,0
133654,97.9032,-797.227,0,0
134956,100.998,-786.827,0,0
136258,103.391,-776.32,0,0
137559,108.126,-766.442,0,0
138860.775,110.73,-759.88,0,0
140162.4,110.137,-752.118,0,0
141464.025,109.615,-741.802,0,0
142765.65,110.426,-730.622,0,0
144067.275,112.055,-719.617,0,0
145368.9,113.799,-708.542,0,0
146670.525,117.147,-698.117,0,0
147972.15,118.925,-689.901,0,0
149273.775,120.144,-678.329,0,0
150575.4,122.613,-669.713,0,0
151877.025,121.313,-658.685,0,0
153178.65,121.339,-643.365,0,0
154480,125.307,-626.905,0,0
155782,132.57,-609.972,0,0
157084,144.379,-595.385,0,0
158385,157.306,-585.464,0,0
159687,167.056,-574.366,0,0
160988,185.258,-563.744,0,0
162290,204.324,-563.105,0,0
163592,216.087,-565.746,0,0
164893,228.365,-567.028,0,0
166195,241.307,-574.006,0,0
167497,248.21,-584.77,0,0
168798,247.206,-597.218,0,0
170100,238.238,-604.612,0,0
171401.375,228.958,-602.256,0,0
172703.0,225.714,-596.96,0,0
174004.625,222.328,-592.903,0,0
175306.25,221.191,-588.463,0,0
176607.875,219.788,-585.773,0,0
177909.5,217.521,-582.502,0,0
179211.125,213.236,-579.308,0,0
180512.75,207.295,-575.349,0,0
181814.375,200.625,-567.783,0,0
183116.0,193.691,-557.16,0,0
184417.625,188.303,-543.499,0,0
185719.25,187.27,-527.531,0,0
187021,187.981,-512.318,0,0
188322,191.267,-496.626,0,0
189624,195.58,-482.338,0,0
190926,199.895,-467.18,0,0
192227,205.681,-450.608,0,0
193529,214.406,-433.893,0,0
194831,224.268,-416.67,0,0
196132,237.945,-398.414,0,0
197434,254.586,-381.674,0,0
198735,273.487,-366.072,0,0
200037,295.142,-349.721,0,0
201339,321.834,-334.046,0,0
202640.35,357.155,-318.974,0,0
203941.975,400.829,-312.497,0,0
205243.6,452.47,-321.889,0,0
206545.225,496.393,-349.783,0,0
207846.85,525.335,-388.435,0,0
209148.475,539.548,-428.512,0,0
210450.1,537.802,-465.431,0,0
211751.725,525.73,-484.716,0,0
213053.35,522.716,-486.058,0,0
214354.975,537.029,-491.741,0,0
215656.6,549.867,-507.763,0,0
216958.225,560.501,-522.737,0,0
218259.85,571.999,-539.844,0,0
219561,587.276,-557.28,0,0
220863,606.993,-582.601,0,0
222165,625.311,-621.628,0,0
223466,628.494,-670.495,0,0
224768,619.889,-720.214,0,0
226070,598.207,-765.641,0,0
227371,567.985,-808.598,0,0
228673,524.539,-841.358,0,0
229974,477.726,-858.889,0,0
231276,434.014,-863.196,0,0
232578,397.211,-859.176,0,0
233879,369.069,-852.867,0,0
235180.95,344.872,-848.516,0,0
236482.575,320.462,-843.294,0,0
237784.2,296.821,-837.383,0,0
239085.825,273.764,-827.628,0,0
240387.45,254.452,-815.898,0,0
241689.075,238.032,-804.093,0,0
242990.7,223.35,-791.746,0,0
244292.325,211.387,-780.028,0,0
245593.95,199.63,-769.609,0,0
246895.575,187.831,-758.24,0,0
248197.2,177.511,-745.507,0,0
249498.825,169.098,-732.677,0,0
250800,162.053,-720.277,0,0
252102,156.045,-708.087,0,0
253404,150.447,-695.864,0,0
254705,146.516,-682.77,0,0
256007,144.582,-670.837,0,0
257309,143.081,-659.361,0,0
258610,142.391,-647.715,0,0
259912,144.123,-635.803,0,0
261213,148.523,-625.942,0,0
262515,153.581,-618.842,0,0
263817,158.856,-613.699,0,0
265118,164.695,-610.358,0,0
266420,171.042,-610.972,0,0
267721.55,174.021,-616.714,0,0
269023.175,169.541,-623.661,0,0
270324.8,159.016,-625.203,0,0
271626.425,149.163,-620.105,0,0
272928.05,142.695,-611.632,0,0
274229.675,139.891,-602.689,0,0
275531.3,139.28,-594.823,0,0
276832.925,140.307,-587.653,0,0
278134.55,142.879,-582.687,0,0
279436.175,144.882,-580.412,0,0
280737.8,145.057,-579.124,0,0
282039.425,143.749,-578.183,0,0
283341,140.512,-575.81,0,0
284643,138.203,-572.118,0,0
285944,135.611,-568.734,0,0
287246,131.706,-563.927,0,0
288548,129.439,-555.462,0,0
289849,132.305,-547.901,0,0
291151,134.929,-544.577,0,0
292452,135.81,-541.945,0,0
293754,134.99,-538.331,0,0
295056,134.727,-532.467,0,0
296357,137.062,-525.656,0,0
297659,141.521,-520.411,0,0
298960.525,146.899,-516.348,0,0
300262.15,153.048,-514.149,0,0
301563.775,159.549,-513.372,0,0
302865.4,166.201,-515.227,0,0
304167.025,170.977,-518.881,0,0
305468.65,174.707,-522.836,0,0
306770.275,178.107,-528.402,0,0
308071.9,178.818,-535.748,0,0
309373.525,177.399,-542.101,0,0
310675.15,175.316,-548.272,0,0
311976.775,171.057,-555.448,0,0
313278.4,163.726,-560.682,0,0
314580,156.092,-563.18,0,0
315882,148.92,-564.799,0,0
317183,141.121,-565.543,0,0
318485,133.008,-564.934,0,0
319787,125.133,-562.773,0,0
321088,117.64,-559.458,0,0
322390,110.882,-554.467,0,0
323691,106.129,-548.372,0,0
324993,103.366,-542.686,0,0
326295,101.951,-537.949,0,0
327596,100.914,-534.587,0,0
328898,99.5744,-532.342,0,0
330200,97.4499,-530.497,0,0
331501.125,94.9107,-528.727,0,0
332802.75,91.8288,-527.004,0,0
334104.375,87.9855,-524.887,0,0
335406.0,83.933,-521.764,0,0
336707.625,80.3917,-518.111,0,0
338009.25,77.1739,-514.196,0,0
339310.875,74.3125,-510.116,0,0
340612.5,71.8727,-505.876,0,0
341914.125,69.7382,-501.887,0,0
343215.75,67.548,-497.938,0,0
344517.375,65.4435,-493.845,0,0
345819.0,63.3669,-489.669,0,0
347121,61.3411,-485.197,0,0
348422,59.9006,-480.388,0,0
349724,58.8814,-475.788,0,0
351025,58.174,-471.207,0,0
352327,57.7138,-466.834,0,0
353629,57.3996,-462.722,0,0
354930,57.0767,-458.654,0,0
356232,56.9923,-454.693,0,0
357534,56.8894,-450.911,0,0
358835,56.8485,-447.018,0,0
360137,57.1392,-443.241,0,0
361438,57.4307,-439.571,0,0
362740.1,57.8166,-436.057,0,0
364041.725,58.1975,-432.505,0,0
365343.35,58.8365,-428.954,0,0
366644.975,59.4407,-425.807,0,0
367946.6,59.5806,-422.216,0,0
369248.225,60.3949,-417.829,0,0
370549.85,62.3179,-413.446,0,0
371851.475,65.3232,-409.584,0,0
373153.1,68.9837,-407.359,0,0
374454.725,72.1614,-406.265,0,0
375756.35,74.436,-405.7,0,0
377057.975,76.5471,-405.139,0,0
378359.6,78.4814,-405.081,0,0
379661,79.7878,-405.356,0,0
380963,81.265,-405.321,0,0
382264,82.8649,-406.775,0,0
383566,82.7266,-408.93,0,0
384868,81.1953,-410.828,0,0
386169,78.4493,-411.671,0,0
387471,75.421,-411.188,0,0
388773,72.7851,-409.688,0,0
390074,70.7316,-407.634,0,0
391376,69.4756,-405.691,0,0
392677,68.0828,-404.462,0,0
393979,65.8187,-402.958,0,0
395280.7,63.4456,-400.666,0,0
396582.325,61.2707,-397.65,0,0
397883.95,59.7549,-394.12,0,0
399185.575,58.7422,-390.558,0,0
400006.6,58.338,-388.334,0,0

File: sample_2.csv
Frequency (Hz),Impedance (ohms),Phase (Radians),Temperature (C),Humidity (%)
10000.0,224.19,-11444.5,0,0
11301.625,199.711,-10136,0,0
12603.25,179.845,-9099.35,0,0
13904.875,180.371,-8262.56,0,0
15206.5,157.497,-7560.47,0,0
16508.125,140.878,-6965.78,0,0
17809.75,130.908,-6457.07,0,0
19111.375,126.829,-6017.66,0,0
20413.0,116.596,-5633.26,0,0
21714.625,123.757,-5304.93,0,0
23016.25,110.627,-5007.45,0,0
24317.875,101.34,-4741.31,0,0
25619.5,96.0024,-4497.3,0,0
26921.1,94.1021,-4279.17,0,0
28222.7,88.9726,-4079.05,0,0
29524.4,93.5256,-3895.37,0,0
30826,86.8747,-3740.57,0,0
32127.6,81.4522,-3586.01,0,0
33429.2,79.2371,-3447.51,0,0
34730.9,75.1004,-3316.9,0,0
36032.5,72.5135,-3195.44,0,0
37334.1,70.4353,-3081.83,0,0
38635.7,68.2294,-2976.67,0,0
39937.4,66.5222,-2877.7,0,0
41239,65.4152,-2784.83,0,0
42540.6,63.9364,-2697.89,0,0
43842.225,62.5932,-2616,0,0
45143.85,61.6488,-2538.34,0,0
46445.475,60.7566,-2465.76,0,0
47747.1,60.2681,-2395.95,0,0
49048.725,59.9072,-2332.57,0,0
50350.35,57.6369,-2270.04,0,0
51651.975,56.4173,-2211.03,0,0
52953.6,54.739,-2153.48,0,0
54255.225,54.0804,-2098.67,0,0
55556.85,53.7684,-2046.6,0,0
56858.475,53.6956,-1996.88,0,0
58160.1,53.759,-1949.55,0,0
59461.7,54.4944,-1903.55,0,0
60763.3,55.8483,-1860.94,0,0
62065,58.6633,-1822.95,0,0
63366.6,55.8327,-1785.41,0,0
64668.2,52.7313,-1747.93,0,0
65969.8,50.625,-1708.57,0,0
67271.5,51.2766,-1670.9,0,0
68573.1,53.6664,-1637.06,0,0
69874.7,56.0449,-1606.94,0,0
71176.3,52.8945,-1578.92,0,0
72478,47.6628,-1548.09,0,0
73779.6,44.9143,-1514.94,0,0
75081.2,45.1087,-1482.73,0,0
76382.825,46.9293,-1452.48,0,0
77684.45,49.6625,-1424.27,0,0
78986.075,52.7819,-1399.98,0,0
80287.7,51.8576,-1378.38,0,0
81589.325,49.1467,-1353.34,0,0
82890.95,47.8771,-1327.49,0,0
84192.575,48.7826,-1302.87,0,0
85494.2,49.3389,-1279.13,0,0
86795.825,50.3749,-1256.99,0,0
88097.45,50.8181,-1235.62,0,0
89399.075,51.1938,-1214.5,0,0
90700.7,51.1845,-1193.59,0,0
92002.3,52.8355,-1172.65,0,0
93303.9,55.2383,-1154.17,0,0
94605.6,55.5072,-1137.79,0,0
95907.2,54.7441,-1117.58,0,0
97208.8,57.9098,-1101.43,0,0
98510.4,57.0152,-1087.18,0,0
99812.1,53.2773,-1071.67,0,0
101114,50.0349,-1055.2,0,0
102415,46.7601,-1034.71,0,0
103717,45.8799,-1013.3,0,0
105019,49.1842,-993.305,0,0
106320.175,53.9431,-976.249,0,0
107621.8,57.418,-964.546,0,0
108923.425,55.7242,-952.463,0,0
110225.05,52.3543,-936.92,0,0
111526.675,51.0896,-919.037,0,0
112828.3,51.4687,-901.598,0,0
114129.925,52.9274,-884.341,0,0
115431.55,55.7296,-867.84,0,0
116733.175,58.9153,-852.114,0,0
118034.8,62.7043,-837.959,0,0
119336.425,66.572,-825.008,0,0
120638.05,69.3386,-814.382,0,0
121939.675,69.1284,-803.195,0,0
123241,68.8158,-790.069,0,0
124543,68.7615,-776.58,0,0
125845,68.905,-762.169,0,0
127146,70.411,-746.696,0,0
128448,73.5628,-732.384,0,0
129749,76.7704,-719.287,0,0
131051,80.2399,-707.146,0,0
132353,81.6525,-695.744,0,0
133654,82.7531,-682.861,0,0
134956,83.3944,-669.423,0,0
136258,85.1789,-654.552,0,0
137559,87.6931,-639.626,0,0
138860.775,90.2245,-624.836,0,0
140162.4,92.8384,-608.268,0,0
141464.025,98.2203,-589.389,0,0
142765.65,107.218,-572.609,0,0
144067.275,116.116,-556.625,0,0
145368.9,126.602,-540.558,0,0
146670.525,138.532,-525.146,0,0
147972.15,153.693,-509.338,0,0
149273.775,175.041,-494.805,0,0
150575.4,202.06,-489.399,0,0
151877.025,226.672,-497.295,0,0
153178.65,239.096,-511.581,0,0
154480,239.683,-523.521,0,0
155782,237.963,-527.894,0,0
157084,233.883,-529.603,0,0
158385,230.838,-526.225,0,0
159687,228.092,-520.927,0,0
160988,230.115,-513.13,0,0
162290,239.873,-511.87,0,0
163592,233.708,-520.994,0,0
164893,219.771,-519.127,0,0
166195,205.989,-505.356,0,0
167497,197.91,-487.681,0,0
168798,194.089,-465.989,0,0
170100,195.19,-443.405,0,0
171401.375,199.358,-420.782,0,0
172703.0,207.653,-397.318,0,0
174004.625,218.859,-374.483,0,0
175306.25,236.557,-350.18,0,0
176607.875,260.711,-331.359,0,0
177909.5,287.958,-321.969,0,0
179211.125,310.086,-320.632,0,0
180512.75,319.466,-318.766,0,0
181814.375,326.66,-304.53,0,0
183116.0,339.783,-286.041,0,0
184417.625,363.718,-261.011,0,0
185719.25,396.931,-244.159,0,0
187021,430.407,-230.004,0,0
188322,472.264,-221.575,0,0
189624,510.055,-217.021,0,0
190926,555.961,-207.515,0,0
192227,617.075,-205.702,0,0
193529,690.228,-222.382,0,0
194831,758.356,-266.092,0,0
196132,809.776,-323.728,0,0
197434,855.173,-387.012,0,0
198735,887.057,-467.327,0,0
200037,898.269,-551.891,0,0
201339,889.44,-641.085,0,0
202640.35,856.191,-718.282,0,0
203941.975,808.971,-780.387,0,0
205243.6,757.3,-829.577,0,0
206545.225,697.593,-857.921,0,0
207846.85,645.49,-870.22,0,0
209148.475,608.882,-877.071,0,0
210450.1,569.538,-891.71,0,0
211751.725,521.952,-897.389,0,0
213053.35,481.21,-888.14,0,0
214354.975,448.899,-875.188,0,0
215656.6,422.097,-861,0,0
216958.225,401.632,-845.149,0,0
218259.85,386.147,-830.533,0,0
219561,374.963,-816.685,0,0
220863,366.497,-804.67,0,0
222165,362.871,-794.513,0,0
223466,360.204,-790.339,0,0
224768,355.593,-787.298,0,0
226070,352.16,-784.708,0,0
227371,350.221,-784.736,0,0
228673,348.3,-790.524,0,0
229974,339.853,-799.586,0,0
231276,326.44,-806.158,0,0
232578,310.976,-810.904,0,0
233879,293.384,-812.31,0,0
235180.95,276.16,-810.627,0,0
236482.575,259.307,-807.228,0,0
237784.2,242.203,-801.357,0,0
239085.825,227.305,-793.324,0,0
240387.45,213.776,-784.149,0,0
241689.075,201.89,-773.908,0,0
242990.7,192.712,-763.426,0,0
244292.325,185.185,-754.79,0,0
245593.95,177.507,-748.251,0,0
246895.575,165.962,-743.24,0,0
248197.2,152.453,-733.099,0,0
249498.825,140.543,-720.037,0,0
250800,131.003,-704.258,0,0
252102,124.97,-686.923,0,0
253404,122.486,-670.408,0,0
254705,121.621,-654.783,0,0
256007,122.777,-639.071,0,0
257309,127.221,-624.825,0,0
258610,132.852,-613.015,0,0
259912,139.616,-602.747,0,0
261213,147.555,-594.553,0,0
262515,156.186,-589.162,0,0
263817,164.041,-586.411,0,0
265118,170.936,-585.706,0,0
266420,175.477,-586.731,0,0
267721.55,178.179,-587.684,0,0
269023.175,179.097,-588.651,0,0
270324.8,178.031,-586.757,0,0
271626.425,179.637,-582.026,0,0
272928.05,185.004,-577.252,0,0
274229.675,195.075,-575.017,0,0
275531.3,208.109,-580.989,0,0
276832.925,215.017,-596.64,0,0
278134.55,211.303,-612.903,0,0
279436.175,201.208,-624.484,0,0
280737.8,188.916,-630.826,0,0
282039.425,176.976,-634.829,0,0
283341,162.081,-635.321,0,0
284643,150.312,-631.217,0,0
285944,136.928,-627.282,0,0
287246,123.166,-616.347,0,0
288548,115.102,-599.165,0,0
289849,117.36,-580.28,0,0
291151,128.816,-567.502,0,0
292452,143.668,-566.608,0,0
293754,149.763,-575.856,0,0
295056,146.198,-579.943,0,0
296357,148.801,-579.717,0,0
297659,149.377,-590.01,0,0
298960.525,140.022,-596.67,0,0
300262.15,129.804,-597.474,0,0
301563.775,121.947,-594.283,0,0
302865.4,117.355,-591.85,0,0
304167.025,112.319,-591.401,0,0
305468.65,104.93,-590.979,0,0
306770.275,96.4101,-588.02,0,0
308071.9,88.9475,-582.987,0,0
309373.525,82.5535,-577.198,0,0
310675.15,77.0834,-570.941,0,0
311976.775,72.5913,-564.207,0,0
313278.4,69.1095,-557.528,0,0
314580,66.1349,-551.048,0,0
315882,63.729,-544.668,0,0
317183,61.7969,-538.209,0,0
318485,60.593,-532.121,0,0
319787,59.5937,-526.695,0,0
321088,58.4257,-521.211,0,0
322390,57.4939,-515.669,0,0
323691,56.7018,-509.776,0,0
324993,56.5284,-503.149,0,0
326295,58.6605,-496.76,0,0
327596,61.9356,-492.874,0,0
328898,63.9994,-490.439,0,0
330200,65.6854,-488.599,0,0
331501.125,66.7418,-487.884,0,0
332802.75,66.0315,-487.658,0,0
334104.375,63.5825,-486.486,0,0
335406.0,61.1448,-483.803,0,0
336707.625,59.0193,-480.423,0,0
338009.25,57.3669,-476.636,0,0
339310.875,56.0267,-472.504,0,0
340612.5,55.0455,-468.238,0,0
341914.125,54.489,-463.835,0,0
343215.75,54.327,-459.351,0,0
344517.375,54.774,-454.854,0,0
345819.0,55.5866,-450.756,0,0
347121,56.7661,-446.924,0,0
348422,58.1886,-443.367,0,0
349724,59.895,-440.26,0,0
351025,61.8066,-437.727,0,0
352327,63.3929,-435.968,0,0
353629,64.3471,-434.144,0,0
354930,65.4777,-432.178,0,0
356232,66.6459,-430.31,0,0
357534,68.1533,-428.657,0,0
358835,69.7432,-427.666,0,0
360137,71.1488,-427.353,0,0
361438,71.7814,-427.601,0,0
362740.1,71.5437,-427.735,0,0
364041.725,70.8439,-427.606,0,0
365343.35,69.8208,-427.062,0,0
366644.975,68.5983,-426,0,0
367946.6,67.8794,-424.344,0,0
369248.225,67.9495,-423.355,0,0
370549.85,67.134,-423.096,0,0
371851.475,65.6967,-422.209,0,0
373153.1,64.5278,-421.001,0,0
374454.725,63.4496,-420.075,0,0
375756.35,61.7987,-419.079,0,0
377057.975,60.1434,-417.595,0,0
378359.6,58.5791,-416.435,0,0
379661,55.8194,-415.085,0,0
380963,53.4042,-411.411,0,0
382264,53.4451,-408.592,0,0
383566,52.3587,-407.362,0,0
384868,50.2978,-405.456,0,0
386169,48.2507,-402.595,0,0
387471,46.7582,-399.35,0,0
388773,45.5796,-395.908,0,0
390074,45.0911,-392.288,0,0
391376,45.4492,-389.39,0,0
392677,45.0726,-387.687,0,0
393979,43.5063,-385.478,0,0
395280.7,41.8335,-382.012,0,0
396582.325,41.0225,-377.913,0,0
397883.95,41.033,-373.814,0,0
399185.575,41.5896,-370.117,0,0
400006.6,42.0427,-368.03,0,0