Folder: ML_Dmg_Mehdi_Dataset/Accelerated corrosion test data/2025-10-22_18-00-04

Note: README.md
# ML_Dmg_Mehdi_Dataset

File: sample_1.csv
Frequency (Hz),Impedance (ohms),Phase (Radians),Temperature (C),Humidity (%)
10000.0,242.479,-12194.8,0,0
11301.625,216.772,-10801.6,0,0
12603.25,196.598,-9702.24,0,0
13904.875,184.153,-8779.49,0,0
15206.5,191.766,-8046.72,0,0
16508.125,156.068,-7424.54,0,0
17809.75,146.493,-6887.93,0,0
19111.375,136.676,-6420.32,0,0
20413.0,156.87,-5977.34,0,0
21714.625,135.811,-5659.87,0,0
23016.25,122.768,-5359.13,0,0
24317.875,113.798,-5066.62,0,0
25619.5,105.577,-4802.28,0,0
26921.1,114.197,-4552.49,0,0
28222.7,110.557,-4349.82,0,0
29524.4,108.034,-4184.8,0,0
30826,101.685,-3997.17,0,0
32127.6,98.2789,-3839.61,0,0
33429.2,89.7258,-3696.39,0,0
34730.9,82.192,-3554.29,0,0
36032.5,78.242,-3423.12,0,0
37334.1,75.7313,-3301.25,0,0
38635.7,73.0553,-3187.35,0,0
39937.4,71.1534,-3080.85,0,0
41239,72.527,-2981.92,0,0
42540.6,70.5243,-2889.67,0,0
43842.225,68.1355,-2803.15,0,0
45143.85,68.5999,-2722.14,0,0
46445.475,65.3573,-2644.92,0,0
47747.1,64.0894,-2571.81,0,0
49048.725,61.7997,-2501.58,0,0
50350.35,59.6964,-2435.05,0,0
51651.975,59.0006,-2371.5,0,0
52953.6,57.8181,-2310.5,0,0
54255.225,56.8291,-2253.83,0,0
55556.85,55.8481,-2198.18,0,0
56858.475,54.8904,-2145.19,0,0
58160.1,54.6648,-2094.69,0,0
59461.7,54.337,-2046.79,0,0
60763.3,54.4986,-2000.9,0,0
62065,53.0883,-1957.06,0,0
63366.6,52.6166,-1913.6,0,0
64668.2,53.0029,-1871.26,0,0
65969.8,55.0793,-1833.65,0,0
67271.5,53.8541,-1797.31,0,0
68573.1,53.3358,-1761.5,0,0
69874.7,52.2542,-1727.58,0,0
71176.3,50.2157,-1692.77,0,0
72478,48.404,-1659.36,0,0
73779.6,48.0807,-1625.92,0,0
75081.2,48.4844,-1593.45,0,0
76382.825,49.0398,-1562.74,0,0
77684.45,50.2727,-1533.33,0,0
78986.075,51.8389,-1505.83,0,0
80287.7,51.0166,-1479.24,0,0
81589.325,50.4169,-1451.54,0,0
82890.95,51.084,-1424.74,0,0
84192.575,52.6394,-1398.66,0,0
85494.2,54.5698,-1373.91,0,0
86795.825,55.7365,-1350.65,0,0
88097.45,56.0907,-1327.43,0,0
89399.075,57.8608,-1302.62,0,0
90700.7,61.1266,-1279.75,0,0
92002.3,67.4776,-1258.56,0,0
93303.9,74.8874,-1240.69,0,0
94605.6,73.3757,-1234.7,0,0
95907.2,67.0424,-1215.26,0,0
97208.8,65.2728,-1194.93,0,0
98510.4,64.3156,-1174.83,0,0
99812.1,63.4222,-1155.28,0,0
101114,63.1147,-1134.96,0,0
102415,63.5812,-1113.18,0,0
103717,68.7332,-1091.96,0,0
105019,75.3785,-1075.2,0,0
106320.175,80.964,-1058.95,0,0
107621.8,87.4459,-1046.15,0,0
108923.425,91.8394,-1035.22,0,0
110225.05,94.1687,-1026.73,0,0
111526.675,94.0925,-1014.55,0,0
112828.3,97.2255,-1004.64,0,0
114129.925,95.8254,-997.506,0,0
115431.55,92.1732,-987.85,0,0
116733.175,87.9414,-975.974,0,0
118034.8,83.3303,-961.889,0,0
119336.425,81.2775,-946.431,0,0
120638.05,81.4255,-932.031,0,0
121939.675,80.2518,-919.407,0,0
123241,78.9101,-904.59,0,0
124543,78.9463,-889.861,0,0
125845,79.4986,-875.101,0,0
127146,80.6473,-860.681,0,0
128448,82.4581,-846.181,0,0
129749,85.3845,-832.121,0,0
131051,89.9467,-819.162,0,0
132353,94.0807,-808.305,0,0
133654,96.8235,-797.8,0,0
134956,99.818,-786.945,0,0
136258,102.96,-776.214,0,0
137559,108.067,-766.655,0,0
138860.775,110.086,-760.919,0,0
140162.4,109.334,-752.112,0,0
141464.025,109.474,-742.171,0,0
142765.65,110.123,-731.381,0,0
144067.275,111.554,-719.962,0,0
145368.9,114.061,-708.548,0,0
146670.525,117.52,-699.004,0,0
147972.15,118.83,-690.956,0,0
149273.775,120.302,-680.31,0,0
150575.4,121.491,-671.082,0,0
151877.025,120.778,-659.836,0,0
153178.65,120.838,-645.046,0,0
154480,124.7,-628.834,0,0
155782,131.606,-612.082,0,0
157084,143.66,-596.389,0,0
158385,155.87,-587.796,0,0
159687,164.916,-576.084,0,0
160988,183.161,-564.242,0,0
162290,202.992,-564.432,0,0
163592,213.948,-566.861,0,0
164893,227.344,-566.99,0,0
166195,240.264,-574.246,0,0
167497,247.295,-584.988,0,0
168798,246.394,-597.793,0,0
170100,237.589,-605.153,0,0
171401.375,228.814,-603.427,0,0
172703.0,224.466,-598.247,0,0
174004.625,222.223,-594.298,0,0
175306.25,220.458,-589.808,0,0
176607.875,219.415,-586.879,0,0
177909.5,217.625,-582.867,0,0
179211.125,215.009,-581.973,0,0
180512.75,206.404,-579.782,0,0
181814.375,198.245,-570.397,0,0
183116.0,191.905,-558.996,0,0
184417.625,187.349,-544.663,0,0
185719.25,186.332,-529.28,0,0
187021,187.365,-514.471,0,0
188322,191.131,-499.239,0,0
189624,194.714,-485.997,0,0
190926,197.599,-470.834,0,0
192227,203.38,-453.867,0,0
193529,211.697,-436.241,0,0
194831,222.763,-419.307,0,0
196132,236.202,-401.969,0,0
197434,252.901,-385.984,0,0
198735,271.393,-371.471,0,0
200037,291.008,-355.92,0,0
201339,315.692,-340.528,0,0
202640.35,348.108,-324.117,0,0
203941.975,391.625,-314.674,0,0
205243.6,443.142,-322.346,0,0
206545.225,488.01,-348.857,0,0
207846.85,517.266,-385.238,0,0
209148.475,534.405,-424.684,0,0
210450.1,534.105,-463.914,0,0
211751.725,520.643,-482.231,0,0
213053.35,521.38,-482.778,0,0
214354.975,534.378,-493.518,0,0
215656.6,544.861,-508.251,0,0
216958.225,555.367,-523.329,0,0
218259.85,565.962,-540.581,0,0
219561,580.144,-556.097,0,0
220863,599.576,-580.16,0,0
222165,617.566,-617.373,0,0
223466,624.389,-665.567,0,0
224768,614.355,-715.514,0,0
226070,595.619,-760.593,0,0
227371,564.33,-803.707,0,0
228673,522.575,-836.879,0,0
229974,475.108,-854.281,0,0
231276,432.576,-858.419,0,0
232578,396.532,-855.747,0,0
233879,367.383,-848.954,0,0
235180.95,344.499,-843.988,0,0
236482.575,320.591,-840.494,0,0
237784.2,296.41,-834.366,0,0
239085.825,274.017,-825.062,0,0
240387.45,254.525,-814.07,0,0
241689.075,237.712,-802.403,0,0
242990.7,222.743,-790.06,0,0
244292.325,210.873,-778.281,0,0
245593.95,199.225,-767.71,0,0
246895.575,187.39,-756.637,0,0
248197.2,177.198,-743.919,0,0
249498.825,168.496,-731.438,0,0
250800,161.517,-718.52,0,0
252102,155.61,-706.763,0,0
253404,149.94,-694.382,0,0
254705,146.439,-681.358,0,0
256007,144.481,-669.777,0,0
257309,142.779,-658.49,0,0
258610,142.151,-646.851,0,0
259912,143.918,-635.243,0,0
261213,147.94,-625.728,0,0
262515,152.568,-618.439,0,0
263817,157.622,-612.906,0,0
265118,163.636,-609.117,0,0
266420,170.442,-609.469,0,0
267721.55,173.907,-615.355,0,0
269023.175,169.636,-622.691,0,0
270324.8,159.664,-625.043,0,0
271626.425,148.82,-620.916,0,0
272928.05,141.734,-612.157,0,0
274229.675,138.808,-603.13,0,0
275531.3,137.744,-595.058,0,0
276832.925,138.762,-588.057,0,0
278134.55,140.761,-583.191,0,0
279436.175,141.867,-580.584,0,0
280737.8,141.416,-577.963,0,0
282039.425,141.211,-575.703,0,0
283341,138.792,-573.681,0,0
284643,136.937,-569.518,0,0
285944,135.335,-566.474,0,0
287246,131.542,-562.399,0,0
288548,129.436,-554.67,0,0
289849,131.317,-547.413,0,0
291151,134.212,-543.627,0,0
292452,134.712,-540.94,0,0
293754,134.303,-536.993,0,0
295056,134.482,-531.706,0,0
296357,136.487,-525.074,0,0
297659,140.995,-520.02,0,0
298960.525,146.002,-516.615,0,0
300262.15,151.016,-514.03,0,0
301563.775,157.633,-512.222,0,0
302865.4,164.394,-514.267,0,0
304167.025,169.195,-517.121,0,0
305468.65,173.29,-521.121,0,0
306770.275,176.9,-526.421,0,0
308071.9,178.348,-533.874,0,0
309373.525,176.779,-541.062,0,0
310675.15,173.91,-547.321,0,0
311976.775,169.159,-553.227,0,0
313278.4,162.897,-557.541,0,0
314580,156.553,-560.313,0,0
315882,150.011,-562.755,0,0
317183,142.193,-564.336,0,0
318485,133.809,-564.207,0,0
319787,125.414,-562.378,0,0
321088,117.798,-558.989,0,0
322390,110.885,-554.096,0,0
323691,106.085,-547.796,0,0
324993,103.309,-542.143,0,0
326295,102.011,-537.45,0,0
327596,101.038,-534.367,0,0
328898,99.4304,-532.178,0,0
330200,97.2336,-530.456,0,0
331501.125,94.503,-528.882,0,0
332802.75,91.038,-526.963,0,0
334104.375,87.2097,-524.698,0,0
335406.0,83.1246,-521.613,0,0
336707.625,79.488,-517.694,0,0
338009.25,76.3966,-513.69,0,0
339310.875,73.6129,-509.459,0,0
340612.5,71.2502,-505.364,0,0
341914.125,69.0939,-501.34,0,0
343215.75,67.0132,-497.419,0,0
344517.375,64.8782,-493.411,0,0
345819.0,62.7454,-489.214,0,0
347121,60.8251,-484.738,0,0
348422,59.3333,-479.836,0,0
349724,58.4213,-475.267,0,0
351025,57.7437,-470.85,0,0
352327,57.2791,-466.555,0,0
353629,56.9177,-462.569,0,0
354930,56.5467,-458.536,0,0
356232,56.2898,-454.587,0,0
357534,56.2032,-450.755,0,0
358835,56.1213,-446.895,0,0
360137,56.3102,-443.07,0,0
361438,56.6231,-439.476,0,0
362740.1,56.7337,-436.003,0,0
364041.725,56.9852,-432.194,0,0
365343.35,57.6484,-428.649,0,0
366644.975,58.2196,-425.344,0,0
367946.6,58.3975,-421.568,0,0
369248.225,59.3682,-417.276,0,0
370549.85,61.1977,-413.054,0,0
371851.475,63.9505,-409.309,0,0
373153.1,67.3323,-406.696,0,0
374454.725,70.4816,-405.148,0,0
375756.35,73.1299,-404.267,0,0
377057.975,75.5581,-403.747,0,0
378359.6,77.5592,-403.824,0,0
379661,78.7363,-404.04,0,0
380963,80.1362,-403.72,0,0
382264,82.0297,-404.659,0,0
383566,82.6821,-406.926,0,0
384868,81.2894,-408.995,0,0
386169,79.0244,-409.93,0,0
387471,76.2533,-409.973,0,0
388773,73.4926,-408.845,0,0
390074,71.5696,-407.061,0,0
391376,70.0764,-405.616,0,0
392677,68.175,-404.382,0,0
393979,65.8226,-402.722,0,0
395280.7,63.4922,-400.315,0,0
396582.325,61.4072,-397.427,0,0
397883.95,59.7851,-394.002,0,0
399185.575,58.7483,-390.449,0,0
400006.6,58.358,-388.247,0,0

File: sample_2.csv
Frequency (Hz),Impedance (ohms),Phase (Radians),Temperature (C),Humidity (%)
10000.0,234.35,-11449.5,0,0
11301.625,208.601,-10140.6,0,0
12603.25,187.324,-9104.56,0,0
13904.875,187.297,-8251.77,0,0
15206.5,170.475,-7563.16,0,0
16508.125,145.684,-6970.15,0,0
17809.75,134.934,-6461.41,0,0
19111.375,130.381,-6021.37,0,0
20413.0,120.038,-5637.13,0,0
21714.625,130.117,-5307.57,0,0
23016.25,114.034,-5011.25,0,0
24317.875,104.309,-4744.89,0,0
25619.5,98.4558,-4500.42,0,0
26921.1,96.1584,-4282.01,0,0
28222.7,90.8371,-4082.55,0,0
29524.4,93.655,-3898.41,0,0
30826,88.949,-3744.09,0,0
32127.6,83.0198,-3589.98,0,0
33429.2,80.4207,-3451.08,0,0
34730.9,76.5647,-3319.96,0,0
36032.5,73.89,-3198.48,0,0
37334.1,71.4417,-3084.73,0,0
38635.7,69.2336,-2979.43,0,0
39937.4,67.4282,-2880.33,0,0
41239,66.0393,-2787.22,0,0
42540.6,65.1555,-2700.52,0,0
43842.225,63.6844,-2618.26,0,0
45143.85,62.4914,-2540.59,0,0
46445.475,61.7771,-2468.02,0,0
47747.1,60.8428,-2398.7,0,0
49048.725,60.9367,-2334.76,0,0
50350.35,58.1946,-2272.51,0,0
51651.975,56.8315,-2213.21,0,0
52953.6,55.4224,-2155.6,0,0
54255.225,54.6245,-2100.92,0,0
55556.85,54.1481,-2048.87,0,0
56858.475,54.0053,-1998.9,0,0
58160.1,54.3051,-1951.47,0,0
59461.7,54.9195,-1905.31,0,0
60763.3,56.7545,-1862.8,0,0
62065,59.1204,-1824.53,0,0
63366.6,55.8326,-1787.7,0,0
64668.2,52.8781,-1749.61,0,0
65969.8,51.0056,-1710.15,0,0
67271.5,51.4873,-1672.75,0,0
68573.1,54.2001,-1638.86,0,0
69874.7,55.7636,-1608.34,0,0
71176.3,52.431,-1580.44,0,0
72478,47.9923,-1549.88,0,0
73779.6,45.4249,-1516.7,0,0
75081.2,45.3076,-1484.22,0,0
76382.825,47.1541,-1453.86,0,0
77684.45,49.9822,-1425.48,0,0
78986.075,53.096,-1401.43,0,0
80287.7,52.0318,-1379.8,0,0
81589.325,49.2095,-1354.63,0,0
82890.95,48.1641,-1328.83,0,0
84192.575,48.8436,-1304.13,0,0
85494.2,49.5086,-1280.56,0,0
86795.825,50.6767,-1258.31,0,0
88097.45,51.2338,-1237.06,0,0
89399.075,51.5549,-1215.72,0,0
90700.7,51.5569,-1195.55,0,0
92002.3,53.0843,-1174.07,0,0
93303.9,54.9842,-1155.17,0,0
94605.6,55.5558,-1138.87,0,0
95907.2,54.6821,-1119.12,0,0
97208.8,58.0974,-1101.93,0,0
98510.4,57.4372,-1088.13,0,0
99812.1,53.6099,-1073.01,0,0
101114,50.6301,-1055.81,0,0
102415,46.9948,-1035.75,0,0
103717,46.2274,-1014.45,0,0
105019,49.6792,-994.188,0,0
106320.175,54.2614,-976.905,0,0
107621.8,58.102,-965.057,0,0
108923.425,56.3191,-953.293,0,0
110225.05,53.0824,-937.901,0,0
111526.675,51.7631,-919.909,0,0
112828.3,52.3143,-902.492,0,0
114129.925,54.043,-885.29,0,0
115431.55,56.7723,-868.749,0,0
116733.175,60.3855,-853.327,0,0
118034.8,64.3047,-839.127,0,0
119336.425,68.489,-827.141,0,0
120638.05,70.7812,-816.976,0,0
121939.675,70.2951,-806.246,0,0
123241,69.1954,-793.502,0,0
124543,68.5071,-779.882,0,0
125845,68.1702,-764.978,0,0
127146,69.6385,-749.459,0,0
128448,72.3251,-735.159,0,0
129749,75.0707,-721.688,0,0
131051,77.8616,-708.915,0,0
132353,79.1713,-696.506,0,0
133654,80.6885,-682.754,0,0
134956,81.8948,-668.856,0,0
136258,84.1935,-653.658,0,0
137559,87.3808,-638.406,0,0
138860.775,90.839,-623.54,0,0
140162.4,94.0888,-607.453,0,0
141464.025,99.974,-589.011,0,0
142765.65,109.554,-572.017,0,0
144067.275,119.403,-556.56,0,0
145368.9,130.73,-541.835,0,0
146670.525,143.148,-527.732,0,0
147972.15,157.687,-513.561,0,0
149273.775,177.9,-499.469,0,0
150575.4,205.998,-495.226,0,0
151877.025,228.458,-506.012,0,0
153178.65,237.513,-521.901,0,0
154480,235.554,-532.384,0,0
155782,232.125,-534.76,0,0
157084,226.378,-535.02,0,0
158385,223.734,-529.34,0,0
159687,222.675,-523.549,0,0
160988,222.978,-516.236,0,0
162290,230.693,-513.634,0,0
163592,226.254,-519.105,0,0
164893,212.813,-515.428,0,0
166195,200.859,-501.908,0,0
167497,194.187,-483.703,0,0
168798,190.313,-462.9,0,0
170100,191.419,-439.467,0,0
171401.375,196.365,-416.934,0,0
172703.0,204.434,-393.1,0,0
174004.625,217.051,-369.061,0,0
175306.25,235.951,-345.769,0,0
176607.875,260.518,-326.916,0,0
177909.5,288.271,-316.671,0,0
179211.125,310.793,-316.366,0,0
180512.75,320.286,-316.113,0,0
181814.375,326.759,-298.745,0,0
183116.0,343.801,-280.176,0,0
184417.625,366.857,-257.122,0,0
185719.25,400.008,-238.567,0,0
187021,438.274,-224.503,0,0
188322,481.132,-217.969,0,0
189624,519.653,-216.755,0,0
190926,564.516,-209.731,0,0
192227,624.587,-208.798,0,0
193529,696.235,-225.023,0,0
194831,765.097,-269.95,0,0
196132,816.9,-330.223,0,0
197434,857.524,-394.023,0,0
198735,890.031,-473.951,0,0
200037,899.934,-558.219,0,0
201339,891.608,-646.653,0,0
202640.35,856.293,-723.036,0,0
203941.975,812.896,-786.11,0,0
205243.6,760.366,-839.297,0,0
206545.225,694.464,-869.217,0,0
207846.85,638.793,-878.677,0,0
209148.475,601.63,-882.65,0,0
210450.1,562.98,-895.691,0,0
211751.725,515.469,-900.58,0,0
213053.35,474.324,-890.075,0,0
214354.975,441.776,-876.482,0,0
215656.6,415.081,-861.551,0,0
216958.225,394.268,-843.767,0,0
218259.85,379.888,-827.662,0,0
219561,369.464,-812.766,0,0
220863,362.77,-800.493,0,0
222165,359.582,-790.327,0,0
223466,357.38,-785.154,0,0
224768,355.087,-781.714,0,0
226070,351.981,-780.001,0,0
227371,350.879,-780.239,0,0
228673,349.832,-785.8,0,0
229974,342.492,-795.93,0,0
231276,330.066,-803.049,0,0
232578,315.194,-809.429,0,0
233879,297.071,-811.97,0,0
235180.95,279.176,-810.836,0,0
236482.575,262.215,-807.987,0,0
237784.2,244.684,-802.737,0,0
239085.825,229.388,-794.925,0,0
240387.45,215.007,-786.336,0,0
241689.075,202.635,-776.22,0,0
242990.7,192.615,-765.55,0,0
244292.325,184.801,-756.549,0,0
245593.95,176.65,-749.995,0,0
246895.575,164.838,-743.716,0,0
248197.2,151.89,-733.376,0,0
249498.825,140.117,-720.243,0,0
250800,130.662,-704.598,0,0
252102,124.912,-687.326,0,0
253404,122.16,-671.276,0,0
254705,120.657,-655.622,0,0
256007,121.645,-639.359,0,0
257309,125.656,-625.057,0,0
258610,131.129,-612.343,0,0
259912,138.311,-601.425,0,0
261213,146.927,-593.069,0,0
262515,155.659,-587.616,0,0
263817,163.575,-584.513,0,0
265118,170.793,-583.316,0,0
266420,176.159,-583.814,0,0
267721.55,179.938,-584.447,0,0
269023.175,182.225,-585.544,0,0
270324.8,182.925,-585.059,0,0
271626.425,184.835,-582.002,0,0
272928.05,190.11,-578.913,0,0
274229.675,199.11,-577.941,0,0
275531.3,211.59,-584.873,0,0
276832.925,216.884,-601.463,0,0
278134.55,211.643,-617.376,0,0
279436.175,200.776,-628.43,0,0
280737.8,187.782,-634.428,0,0
282039.425,175.125,-637.428,0,0
283341,160.149,-637.396,0,0
284643,148.21,-632.049,0,0
285944,136.046,-627.766,0,0
287246,122.456,-617.634,0,0
288548,113.851,-600.352,0,0
289849,115.749,-581.318,0,0
291151,126.873,-567.78,0,0
292452,142.436,-566.127,0,0
293754,149.341,-575.506,0,0
295056,145.345,-580.504,0,0
296357,146.951,-578.661,0,0
297659,149.947,-588.473,0,0
298960.525,140.732,-596.633,0,0
300262.15,130.008,-597.594,0,0
301563.775,122.043,-594.546,0,0
302865.4,117.312,-591.613,0,0
304167.025,112.83,-591.267,0,0
305468.65,105.632,-591.122,0,0
306770.275,97.133,-588.359,0,0
308071.9,89.569,-583.703,0,0
309373.525,83.0238,-577.953,0,0
310675.15,77.5484,-571.811,0,0
311976.775,72.8459,-565.276,0,0
313278.4,69.1044,-558.597,0,0
314580,66.022,-552.043,0,0
315882,63.6056,-545.684,0,0
317183,61.473,-539.33,0,0
318485,60.0139,-533.043,0,0
319787,58.9889,-527.259,0,0
321088,57.9147,-521.682,0,0
322390,56.9284,-516.018,0,0
323691,56.1725,-510.108,0,0
324993,56.1539,-503.487,0,0
326295,58.2836,-496.94,0,0
327596,61.6671,-492.924,0,0
328898,63.8694,-490.395,0,0
330200,65.8638,-488.623,0,0
331501.125,66.9487,-487.985,0,0
332802.75,66.3564,-488.018,0,0
334104.375,63.9304,-486.98,0,0
335406.0,61.4759,-484.335,0,0
336707.625,59.3712,-481.119,0,0
338009.25,57.5678,-477.544,0,0
339310.875,56.1328,-473.644,0,0
340612.5,54.8851,-469.392,0,0
341914.125,54.1629,-464.939,0,0
343215.75,53.8469,-460.405,0,0
344517.375,54.0211,-455.895,0,0
345819.0,54.7526,-451.582,0,0
347121,55.8369,-447.625,0,0
348422,57.1674,-443.923,0,0
349724,58.9642,-440.621,0,0
351025,60.8318,-438.01,0,0
352327,62.3025,-436.087,0,0
353629,63.4772,-434.012,0,0
354930,64.6309,-432.011,0,0
356232,65.8265,-430.019,0,0
357534,67.5536,-428.16,0,0
358835,69.3947,-427.177,0,0
360137,70.7974,-426.97,0,0
361438,71.3955,-427.087,0,0
362740.1,71.3786,-427.179,0,0
364041.725,70.8325,-427.174,0,0
365343.35,69.8098,-426.603,0,0
366644.975,68.7907,-425.522,0,0
367946.6,68.183,-424.058,0,0
369248.225,68.1394,-423.069,0,0
370549.85,67.3393,-422.763,0,0
371851.475,66.0802,-421.825,0,0
373153.1,65.2289,-420.843,0,0
374454.725,63.9852,-420.078,0,0
375756.35,62.3858,-419.017,0,0
377057.975,60.8754,-417.634,0,0
378359.6,59.3935,-416.596,0,0
379661,56.6082,-415.46,0,0
380963,54.0556,-411.906,0,0
382264,54.0256,-409.163,0,0
383566,52.8312,-407.952,0,0
384868,50.7874,-406.054,0,0
386169,48.7266,-403.361,0,0
387471,47.0229,-400.205,0,0
388773,45.6937,-396.639,0,0
390074,45.3255,-392.925,0,0
391376,45.6282,-390.157,0,0
392677,45.1603,-388.488,0,0
393979,43.4658,-386.237,0,0
395280.7,41.6988,-382.725,0,0
396582.325,40.8673,-378.567,0,0
397883.95,40.8294,-374.366,0,0
399185.575,41.3815,-370.569,0,0
400006.6,41.8897,-368.381,0,0