Folder: ML_Dmg_Mehdi_Dataset/Accelerated corrosion test data/2025-10-18_06-00-03 (part 2)

File: sample_3.csv
Frequency (Hz),Impedance (ohms),Phase (Radians),Temperature (C),Humidity (%)
10000.0,256.72,-11923.8,0,0
11301.625,228.912,-10561.8,0,0
12603.25,207.369,-9478.9,0,0
13904.875,190.172,-8596.7,0,0
15206.5,178.003,-7856.67,0,0
16508.125,164.751,-7256.38,0,0
17809.75,160.751,-6723.53,0,0
19111.375,149.733,-6266.46,0,0
20413.0,164.036,-5860.99,0,0
21714.625,143.346,-5536.45,0,0
23016.25,130.458,-5227.15,0,0
24317.875,122.601,-4945.32,0,0
25619.5,115.824,-4695.38,0,0
26921.1,111.61,-4461.92,0,0
28222.7,106.34,-4252.52,0,0
29524.4,110.633,-4074.58,0,0
30826,104.299,-3900.19,0,0
32127.6,104.183,-3733.25,0,0
33429.2,101.818,-3609.08,0,0
34730.9,90.0101,-3469.01,0,0
36032.5,85.1574,-3339.9,0,0
37334.1,81.7367,-3220.54,0,0
38635.7,79.6325,-3109.25,0,0
39937.4,77.0338,-3005.33,0,0
41239,75.8265,-2907.22,0,0
42540.6,74.4769,-2816.72,0,0
43842.225,73.3275,-2729.97,0,0
45143.85,72.1601,-2649.51,0,0
46445.475,71.0166,-2572.47,0,0
47747.1,71.9007,-2499.59,0,0
49048.725,69.7177,-2433.42,0,0
50350.35,67.6622,-2367.48,0,0
51651.975,67.2642,-2304.21,0,0
52953.6,67.356,-2243.83,0,0
54255.225,69.8803,-2188.01,0,0
55556.85,67.9008,-2139.72,0,0
56858.475,62.6823,-2086.71,0,0
58160.1,62.0533,-2034.11,0,0
59461.7,62.4741,-1984.28,0,0
60763.3,63.73,-1937.3,0,0
62065,65.6534,-1891.81,0,0
63366.6,69.0952,-1847.69,0,0
64668.2,77.5155,-1805.34,0,0
65969.8,93.3288,-1777.71,0,0
67271.5,76.3289,-1753.69,0,0
68573.1,76.2392,-1714.95,0,0
69874.7,77.4685,-1685.26,0,0
71176.3,72.9534,-1654.68,0,0
72478,71.5833,-1621.64,0,0
73779.6,70.4493,-1593.62,0,0
75081.2,66.7324,-1565.69,0,0
76382.825,62.8067,-1536.74,0,0
77684.45,59.8434,-1507.69,0,0
78986.075,57.3055,-1478.92,0,0
80287.7,55.5329,-1450.54,0,0
81589.325,54.2531,-1422.96,0,0
82890.95,53.6369,-1396.2,0,0
84192.575,53.1548,-1370.26,0,0
85494.2,52.9683,-1344.95,0,0
86795.825,53.0653,-1320.31,0,0
88097.45,53.4291,-1296.17,0,0
89399.075,54.6909,-1272.13,0,0
90700.7,56.6099,-1250.13,0,0
92002.3,58.7279,-1228.94,0,0
93303.9,61.4935,-1209.57,0,0
94605.6,62.8735,-1194.82,0,0
95907.2,57.7281,-1176.58,0,0
97208.8,56.3642,-1155.13,0,0
98510.4,56.1952,-1135.1,0,0
99812.1,55.9355,-1115.84,0,0
101114,55.6387,-1096.02,0,0
102415,57.007,-1075.44,0,0
103717,60.7011,-1057.54,0,0
105019,64.2885,-1042.84,0,0
106320.175,64.1337,-1029.17,0,0
107621.8,62.1828,-1013.77,0,0
108923.425,60.0941,-996.693,0,0
110225.05,59.8136,-978.187,0,0
111526.675,61.668,-960.071,0,0
112828.3,63.9117,-943.876,0,0
114129.925,65.123,-928.102,0,0
115431.55,66.5964,-911.118,0,0
116733.175,69.8412,-893.997,0,0
118034.8,75.5423,-877.224,0,0
119336.425,82.4147,-864.136,0,0
120638.05,89.4087,-857.935,0,0
121939.675,86.0199,-849.82,0,0
123241,86.4164,-835.602,0,0
124543,88.3134,-823.394,0,0
125845,90.5418,-812.668,0,0
127146,90.757,-802.861,0,0
128448,89.7841,-792.6,0,0
129749,88.8032,-780.323,0,0
131051,89.7551,-768.183,0,0
132353,88.5404,-757.235,0,0
133654,87.5639,-745.329,0,0
134956,86.2622,-732.511,0,0
136258,84.9234,-719.376,0,0
137559,84.4186,-704.34,0,0
138860.775,85.9423,-690.829,0,0
140162.4,85.3173,-677.723,0,0
141464.025,84.6129,-664.054,0,0
142765.65,83.2782,-648.296,0,0
144067.275,83.3136,-631.077,0,0
145368.9,84.6898,-613.037,0,0
146670.525,87.0235,-594.176,0,0
147972.15,90.9525,-574.705,0,0
149273.775,96.8689,-554.32,0,0
150575.4,106.383,-533.976,0,0
151877.025,118.252,-516.104,0,0
153178.65,130.681,-501.68,0,0
154480,141.458,-488.429,0,0
155782,150.269,-473.298,0,0
157084,161.672,-455.806,0,0
158385,178.758,-445.254,0,0
159687,182.569,-431.464,0,0
160988,195.316,-405.432,0,0
162290,218.447,-378.942,0,0
163592,250.468,-355.33,0,0
164893,296.784,-339.745,0,0
166195,347.84,-348.395,0,0
167497,390.016,-372.708,0,0
168798,414.809,-404.582,0,0
170100,422.899,-444.296,0,0
171401.375,415.893,-460.622,0,0
172703.0,416.28,-471.057,0,0
174004.625,424.586,-483.291,0,0
175306.25,428.054,-500.619,0,0
176607.875,430.408,-526.053,0,0
177909.5,404.762,-552.701,0,0
179211.125,373.622,-545.853,0,0
180512.75,367.184,-528.249,0,0
181814.375,374.277,-524.571,0,0
183116.0,369.393,-532.583,0,0
184417.625,354.536,-534.441,0,0
185719.25,337.927,-525.337,0,0
187021,327.507,-505.035,0,0
188322,328.582,-486.037,0,0
189624,329.57,-468.207,0,0
190926,338.097,-450.95,0,0
192227,346.803,-436.124,0,0
193529,357.253,-415.976,0,0
194831,379.29,-399.549,0,0
196132,407.322,-390.333,0,0
197434,430.948,-397.656,0,0
198735,446.315,-402.765,0,0
200037,455.623,-405.422,0,0
201339,463.88,-397.769,0,0
202640.35,484.985,-387.105,0,0
203941.975,516.943,-387.018,0,0
205243.6,545.363,-401.493,0,0
206545.225,556.541,-415.353,0,0
207846.85,574.395,-413.462,0,0
209148.475,608.796,-417.562,0,0
210450.1,644.163,-438.256,0,0
211751.725,674.434,-468.967,0,0
213053.35,699.446,-504.188,0,0
214354.975,716.455,-549.581,0,0
215656.6,721.779,-595.002,0,0
216958.225,722.165,-640.78,0,0
218259.85,710.525,-686.39,0,0
219561,693.256,-722.949,0,0
220863,677.083,-760.174,0,0
222165,652.395,-802.304,0,0
223466,607.167,-834.022,0,0
224768,563.289,-841.666,0,0
226070,537.296,-841.643,0,0
227371,516.715,-849.307,0,0
228673,489.599,-860.236,0,0
229974,462.675,-864.345,0,0
231276,434.775,-867.117,0,0
232578,408.658,-864.9,0,0
233879,385.016,-861.765,0,0
235180.95,363.269,-857.235,0,0
236482.575,340.763,-853.616,0,0
237784.2,317.392,-847.739,0,0
239085.825,293.229,-836.177,0,0
240387.45,273.944,-821.824,0,0
241689.075,257.149,-805,0,0
242990.7,245.887,-787.214,0,0
244292.325,239.415,-772.525,0,0
245593.95,231.019,-760.479,0,0
246895.575,224,-746.3,0,0
248197.2,219.059,-732.744,0,0
249498.825,218.045,-718.845,0,0
250800,218.716,-711.491,0,0
252102,214.094,-706.201,0,0
253404,206.65,-697.23,0,0
254705,199.991,-683.952,0,0
256007,198.054,-666.553,0,0
257309,204.254,-651.164,0,0
258610,211.156,-640.376,0,0
259912,223.126,-629.398,0,0
261213,240.194,-627.209,0,0
262515,254.427,-638.225,0,0
263817,256.34,-653.994,0,0
265118,248.785,-667.266,0,0
266420,234.709,-674.875,0,0
267721.55,218.095,-673.422,0,0
269023.175,206.481,-664.988,0,0
270324.8,199.178,-655.738,0,0
271626.425,195.621,-646.227,0,0
272928.05,193.316,-638.696,0,0
274229.675,191.443,-629.433,0,0
275531.3,193.196,-620.057,0,0
276832.925,199.108,-612.179,0,0
278134.55,207.441,-609.997,0,0
279436.175,214.163,-613.101,0,0
280737.8,216.395,-619.738,0,0
282039.425,213.826,-626.113,0,0
283341,208.18,-630.414,0,0
284643,200.619,-632.053,0,0
285944,192.739,-630.398,0,0
287246,186.83,-625.908,0,0
288548,184.503,-621.589,0,0
289849,182.84,-619.193,0,0
291151,180.752,-619.179,0,0
292452,174.991,-618.214,0,0
293754,170.205,-613.518,0,0
295056,168.428,-608.646,0,0
296357,168.646,-605.897,0,0
297659,168.093,-605.759,0,0
298960.525,165.446,-606.102,0,0
300262.15,161.826,-606.287,0,0
301563.775,156.89,-605.979,0,0
302865.4,151.088,-604.241,0,0
304167.025,145.485,-601.184,0,0
305468.65,140.263,-596.872,0,0
306770.275,136.423,-591.716,0,0
308071.9,134.062,-586.582,0,0
309373.525,132.51,-582.563,0,0
310675.15,131.033,-579.589,0,0
311976.775,128.406,-577.393,0,0
313278.4,124.575,-574.423,0,0
314580,120.504,-569.602,0,0
315882,118.407,-563.412,0,0
317183,118.378,-558.149,0,0
318485,118.474,-554.48,0,0
319787,118.327,-550.969,0,0
321088,118.609,-547.658,0,0
322390,119.895,-544.908,0,0
323691,121.425,-544.376,0,0
324993,121.184,-545.81,0,0
326295,118.478,-547.097,0,0
327596,114.473,-547.19,0,0
328898,109.877,-546.089,0,0
330200,105.384,-543.796,0,0
331501.125,101.113,-541.199,0,0
332802.75,96.5491,-538.116,0,0
334104.375,92.0241,-533.961,0,0
335406.0,87.8168,-528.93,0,0
336707.625,84.4881,-523.144,0,0
338009.25,82.0772,-517.227,0,0
339310.875,80.1068,-510.957,0,0
340612.5,79.283,-504.065,0,0
341914.125,80.315,-497.413,0,0
343215.75,82.7962,-492.384,0,0
344517.375,85.1171,-489.62,0,0
345819.0,85.929,-487.782,0,0
347121,85.8306,-485.747,0,0
348422,85.0888,-483.219,0,0
349724,84.4673,-479.652,0,0
351025,85.4481,-475.74,0,0
352327,87.2114,-473.656,0,0
353629,87.7358,-472.948,0,0
354930,86.7352,-471.875,0,0
356232,85.4985,-470.104,0,0
357534,83.9625,-467.74,0,0
358835,82.7378,-464.498,0,0
360137,82.5873,-461.187,0,0
361438,82.4875,-458.665,0,0
362740.1,81.8691,-455.914,0,0
364041.725,82.1303,-452.524,0,0
365343.35,83.4415,-450.166,0,0
366644.975,84.1342,-449.225,0,0
367946.6,83.194,-448.72,0,0
369248.225,80.8577,-446.659,0,0
370549.85,80.0152,-442.542,0,0
371851.475,81.4324,-439.6,0,0
373153.1,82.0437,-439.096,0,0
374454.725,80.4085,-438.112,0,0
375756.35,78.5543,-435.476,0,0
377057.975,77.6645,-431.774,0,0
378359.6,78.0191,-428.258,0,0
379661,79.2738,-425.49,0,0
380963,80.3743,-424.257,0,0
382264,80.268,-423.174,0,0
383566,79.9274,-422.041,0,0
384868,78.7658,-420.786,0,0
386169,77.2339,-418.814,0,0
387471,75.6907,-416.119,0,0
388773,74.4468,-412.603,0,0
390074,74.0031,-408.376,0,0
391376,74.9105,-403.988,0,0
392677,77.1978,-400.274,0,0
393979,79.9612,-398.313,0,0
395280.7,82.0331,-397.337,0,0
396582.325,83.7604,-396.816,0,0
397883.95,84.9236,-397.032,0,0
399185.575,85.0263,-397.443,0,0
400006.6,84.821,-397.565,0,0

File: sample_4.csv
Frequency (Hz),Impedance (ohms),Phase (Radians),Temperature (C),Humidity (%)
10000.0,266.592,-11960.3,0,0
11301.625,237.442,-10596,0,0
12603.25,216.055,-9506.09,0,0
13904.875,196.177,-8617.38,0,0
15206.5,182.565,-7888.21,0,0
16508.125,196.215,-7271.89,0,0
17809.75,157.802,-6759.68,0,0
19111.375,147.202,-6298.82,0,0
20413.0,142.299,-5895.27,0,0
21714.625,148.088,-5547.64,0,0
23016.25,126.696,-5246.12,0,0
24317.875,117.683,-4959.78,0,0
25619.5,113.382,-4704.7,0,0
26921.1,107.752,-4473.36,0,0
28222.7,122.638,-4269.16,0,0
29524.4,116.582,-4089.44,0,0
30826,100.128,-3915.42,0,0
32127.6,102.271,-3753.6,0,0
33429.2,91.328,-3611.9,0,0
34730.9,85.8682,-3472.4,0,0
36032.5,82.7075,-3344.11,0,0
37334.1,80.2516,-3224.6,0,0
38635.7,78.0191,-3111.48,0,0
39937.4,78.0132,-3005.11,0,0
41239,81.4377,-2909.15,0,0
42540.6,79.9536,-2821.83,0,0
43842.225,74.3425,-2737.37,0,0
45143.85,71.7834,-2655.42,0,0
46445.475,71.658,-2577.74,0,0
47747.1,70.4644,-2507.8,0,0
49048.725,66.58,-2437.79,0,0
50350.35,64.9768,-2370.15,0,0
51651.975,64.7092,-2305.26,0,0
52953.6,66.221,-2241.6,0,0
54255.225,74.077,-2184.27,0,0
55556.85,72.0677,-2141.46,0,0
56858.475,66.1043,-2086.74,0,0
58160.1,66.7198,-2034.28,0,0
59461.7,70.5219,-1983.65,0,0
60763.3,80.8003,-1944.63,0,0
62065,70.2779,-1911.53,0,0
63366.6,64.5625,-1865.58,0,0
64668.2,64.6996,-1822.07,0,0
65969.8,66.5388,-1780.84,0,0
67271.5,69.6099,-1744.1,0,0
68573.1,74.557,-1714.5,0,0
69874.7,67.2144,-1685.73,0,0
71176.3,65.0401,-1650.45,0,0
72478,59.522,-1619.01,0,0
73779.6,57.9223,-1582.41,0,0
75081.2,59.7788,-1548.93,0,0
76382.825,62.3643,-1519.84,0,0
77684.45,65.6903,-1491.43,0,0
78986.075,64.8289,-1469.31,0,0
80287.7,61.7668,-1442.47,0,0
81589.325,61.4744,-1416.31,0,0
82890.95,60.2286,-1391.61,0,0
84192.575,58.78,-1366.76,0,0
85494.2,57.6862,-1342.46,0,0
86795.825,56.7136,-1318.52,0,0
88097.45,55.1079,-1295.53,0,0
89399.075,53.9195,-1271.04,0,0
90700.7,53.843,-1247.8,0,0
92002.3,54.0915,-1224.57,0,0
93303.9,55.7803,-1203.45,0,0
94605.6,54.2817,-1183.71,0,0
95907.2,53.3529,-1161.37,0,0
97208.8,53.7982,-1139.55,0,0
98510.4,54.7465,-1117.89,0,0
99812.1,56.916,-1097.16,0,0
101114,60.5856,-1077.93,0,0
102415,60.1908,-1062.65,0,0
103717,57.6152,-1040.42,0,0
105019,60.549,-1016.94,0,0
106320.175,66.6189,-995.897,0,0
107621.8,72.9348,-977.396,0,0
108923.425,80.9079,-959.672,0,0
110225.05,89.3459,-945.957,0,0
111526.675,95.7982,-934.289,0,0
112828.3,101.696,-923.271,0,0
114129.925,106.231,-914.027,0,0
115431.55,109.266,-905.709,0,0
116733.175,109.965,-897.187,0,0
118034.8,109.324,-886.816,0,0
119336.425,110.865,-874.059,0,0
120638.05,116.83,-869.78,0,0
121939.675,109.444,-864.639,0,0
123241,104.072,-852.538,0,0
124543,101.143,-839.675,0,0
125845,100.236,-827.497,0,0
127146,97.667,-818.128,0,0
128448,92.8969,-808.177,0,0
129749,84.3998,-795.323,0,0
131051,77.9341,-777.652,0,0
132353,74.239,-758.629,0,0
133654,72.6357,-739.395,0,0
134956,72.569,-720.156,0,0
136258,74.0436,-701.327,0,0
137559,76.3573,-683.484,0,0
138860.775,78.0795,-665.098,0,0
140162.4,81.2974,-645.785,0,0
141464.025,86.4298,-626.531,0,0
142765.65,92.5818,-608.394,0,0
144067.275,99.0948,-590.589,0,0
145368.9,105.849,-572.538,0,0
146670.525,114.199,-553.591,0,0
147972.15,124.355,-535.067,0,0
149273.775,136.236,-516.687,0,0
150575.4,149.75,-497.999,0,0
151877.025,167.534,-480.355,0,0
153178.65,189.758,-466.52,0,0
154480,212.254,-459.8,0,0
155782,231.101,-455.133,0,0
157084,247.472,-453.679,0,0
158385,262.036,-450.047,0,0
159687,280.384,-448.193,0,0
160988,297.477,-452.609,0,0
162290,306.88,-458.353,0,0
163592,310.174,-460.635,0,0
164893,315.484,-453.937,0,0
166195,328.487,-442.501,0,0
167497,354.537,-437.227,0,0
168798,382.9,-446.906,0,0
170100,407.944,-470.902,0,0
171401.375,413.845,-509.61,0,0
172703.0,395.804,-542.806,0,0
174004.625,363.147,-556.533,0,0
175306.25,332.525,-551.894,0,0
176607.875,308.543,-532.603,0,0
177909.5,298.143,-508.588,0,0
179211.125,295.127,-485.62,0,0
180512.75,298.498,-465.19,0,0
181814.375,303.132,-448.477,0,0
183116.0,306.599,-432.521,0,0
184417.625,310.207,-413.967,0,0
185719.25,316.215,-392.797,0,0
187021,324.748,-370.065,0,0
188322,336.56,-344.115,0,0
189624,353.908,-315.53,0,0
190926,378.797,-285.3,0,0
192227,412.649,-255.277,0,0
193529,456.098,-229.032,0,0
194831,508.073,-208.257,0,0
196132,568.201,-192.328,0,0
197434,641.192,-184.404,0,0
198735,728.789,-191.113,0,0
200037,830.232,-228.778,0,0
201339,921.729,-306.954,0,0
202640.35,982.447,-413.847,0,0
203941.975,1012.98,-530.977,0,0
205243.6,1003.38,-649.752,0,0
206545.225,969.011,-755.759,0,0
207846.85,907.178,-850.14,0,0
209148.475,822.996,-912.161,0,0
210450.1,740.955,-938.549,0,0
211751.725,672.479,-944.788,0,0
213053.35,617.908,-941.148,0,0
214354.975,576.107,-928.444,0,0
215656.6,551.386,-922.894,0,0
216958.225,522.275,-924.907,0,0
218259.85,493.381,-922.777,0,0
219561,466.735,-919.518,0,0
220863,439.918,-915.2,0,0
222165,416.051,-907.308,0,0
223466,396.426,-899.016,0,0
224768,380.385,-894.638,0,0
226070,361.203,-892.816,0,0
227371,338.703,-890.177,0,0
228673,313.346,-883.234,0,0
229974,290.178,-870.38,0,0
231276,270.76,-855.219,0,0
232578,255.201,-838.783,0,0
233879,242.015,-823.07,0,0
235180.95,231.44,-807.391,0,0
236482.575,221.617,-792.197,0,0
237784.2,213.552,-775.765,0,0
239085.825,209.159,-760.144,0,0
240387.45,206.622,-746.485,0,0
241689.075,205.05,-735.07,0,0
242990.7,203.521,-725.692,0,0
244292.325,200.663,-718.329,0,0
245593.95,195.433,-710.106,0,0
246895.575,189.943,-700.01,0,0
248197.2,186.142,-688.437,0,0
249498.825,184.051,-676.564,0,0
250800,184.012,-666.093,0,0
252102,182.38,-657.839,0,0
253404,179.053,-647.179,0,0
254705,177.161,-635.188,0,0
256007,175.44,-620.486,0,0
257309,177.619,-603.11,0,0
258610,185.085,-585.219,0,0
259912,198.21,-569.699,0,0
261213,215.84,-557.553,0,0
262515,236.542,-551.233,0,0
263817,259.541,-553.124,0,0
265118,278.342,-561.514,0,0
266420,294.253,-573.879,0,0
267721.55,309.188,-591.913,0,0
269023.175,312.681,-619.266,0,0
270324.8,302.994,-639.353,0,0
271626.425,293.424,-652.536,0,0
272928.05,282.211,-664.405,0,0
274229.675,269.634,-674.405,0,0
275531.3,252.277,-682.671,0,0
276832.925,232.036,-685.145,0,0
278134.55,210.525,-677.972,0,0
279436.175,199.036,-662.83,0,0
280737.8,196.259,-652.58,0,0
282039.425,192.718,-644.215,0,0
283341,194.254,-638.224,0,0
284643,193.585,-637.862,0,0
285944,188.277,-638.458,0,0
287246,179.666,-635.288,0,0
288548,171.063,-626.471,0,0
289849,169.332,-612.774,0,0
291151,174.978,-601.782,0,0
292452,185.59,-596.685,0,0
293754,195.973,-600.853,0,0
295056,200.402,-611.575,0,0
296357,195.508,-622.826,0,0
297659,185.704,-628.378,0,0
298960.525,176.255,-629.529,0,0
300262.15,167.496,-629.392,0,0
301563.775,158.814,-627.334,0,0
302865.4,151.156,-623.97,0,0
304167.025,143.907,-619.869,0,0
305468.65,137.608,-614.754,0,0
306770.275,132.215,-608.876,0,0
308071.9,128.769,-602.875,0,0
309373.525,126.21,-598.302,0,0
310675.15,122.654,-594.264,0,0
311976.775,119.251,-589.254,0,0
313278.4,116.703,-583.951,0,0
314580,115.297,-578.953,0,0
315882,114.307,-574.952,0,0
317183,113.534,-571.539,0,0
318485,112.819,-568.988,0,0
319787,111.752,-567.841,0,0
321088,108.96,-567.842,0,0
322390,103.382,-567.141,0,0
323691,96.5756,-563.595,0,0
324993,91.4204,-557.72,0,0
326295,87.6259,-551.6,0,0
327596,84.3957,-545.369,0,0
328898,81.8325,-538.708,0,0
330200,80.7672,-531.328,0,0
331501.125,81.4426,-524.98,0,0
332802.75,82.8456,-520.696,0,0
334104.375,82.6753,-517.993,0,0
335406.0,81.1602,-514.765,0,0
336707.625,79.0986,-510.633,0,0
338009.25,77.3912,-505.33,0,0
339310.875,76.2545,-499.371,0,0
340612.5,76.4529,-492.715,0,0
341914.125,78.6217,-486.21,0,0
343215.75,82.5431,-481.466,0,0
344517.375,86.4336,-479.172,0,0
345819.0,89.1364,-478.524,0,0
347121,90.2663,-478.729,0,0
348422,89.706,-478.724,0,0
349724,88.4923,-477.845,0,0
351025,86.7354,-476.343,0,0
352327,84.5731,-473.793,0,0
353629,83.4533,-470.26,0,0
354930,82.9185,-467.227,0,0
356232,82.4913,-464.276,0,0
357534,81.9957,-461.595,0,0
358835,81.0784,-458.947,0,0
360137,79.9089,-455.752,0,0
361438,79.2186,-451.567,0,0
362740.1,79.6222,-447.738,0,0
364041.725,79.7066,-444.446,0,0
365343.35,79.5836,-440.835,0,0
366644.975,79.829,-436.351,0,0
367946.6,80.8939,-431.501,0,0
369248.225,83.4076,-426.562,0,0
370549.85,87.2985,-422.173,0,0
371851.475,92.9209,-419.426,0,0
373153.1,98.9927,-419.749,0,0
374454.725,102.658,-422.855,0,0
375756.35,103.488,-425.598,0,0
377057.975,103.409,-427.351,0,0
378359.6,102.993,-428.325,0,0
379661,102.522,-429.323,0,0
380963,101.198,-430.046,0,0
382264,100.594,-429.153,0,0
383566,101.78,-430.2,0,0
384868,100.634,-433.514,0,0
386169,96.5609,-436.147,0,0
387471,90.7609,-435.735,0,0
388773,86.5624,-432.48,0,0
390074,85.038,-428.86,0,0
391376,85.1777,-427.561,0,0
392677,83.0633,-428.379,0,0
393979,78.9046,-427.88,0,0
395280.7,74.3867,-425.561,0,0
396582.325,70.4324,-422.011,0,0
397883.95,67.1498,-417.751,0,0
399185.575,64.577,-412.815,0,0
400006.6,63.2808,-409.446,0,0