Folder: ML_Dmg_Mehdi_Dataset/Accelerated corrosion test data/2025-10-12_06-00-03 (part 2)

File: sample_3.csv
Frequency (Hz),Impedance (ohms),Phase (Radians),Temperature (C),Humidity (%)
10000.0,249.763,-11800.2,0,0
11301.625,222.447,-10451.9,0,0
12603.25,201.587,-9380.2,0,0
13904.875,184.157,-8506.14,0,0
15206.5,172.042,-7776,0,0
16508.125,160.645,-7180.69,0,0
17809.75,155.503,-6650.92,0,0
19111.375,145.188,-6199.76,0,0
20413.0,158.716,-5800.16,0,0
21714.625,137.522,-5477.84,0,0
23016.25,127.566,-5171.93,0,0
24317.875,118.459,-4892.77,0,0
25619.5,112.356,-4644.92,0,0
26921.1,107.646,-4414.39,0,0
28222.7,102.984,-4207.81,0,0
29524.4,107.899,-4030.32,0,0
30826,100.806,-3858.53,0,0
32127.6,100.648,-3693.89,0,0
33429.2,98.7832,-3568.54,0,0
34730.9,87.314,-3431.28,0,0
36032.5,82.789,-3303.04,0,0
37334.1,79.7148,-3185.29,0,0
38635.7,77.3165,-3075.35,0,0
39937.4,75.1007,-2972.57,0,0
41239,73.8197,-2875.47,0,0
42540.6,72.8317,-2786.01,0,0
43842.225,71.2889,-2700.33,0,0
45143.85,70.613,-2620.66,0,0
46445.475,69.2488,-2544.8,0,0
47747.1,69.5962,-2472.16,0,0
49048.725,68.1508,-2406.6,0,0
50350.35,66.191,-2341.64,0,0
51651.975,65.6717,-2278.78,0,0
52953.6,65.934,-2219,0,0
54255.225,68.7734,-2164.08,0,0
55556.85,66.2539,-2116.6,0,0
56858.475,61.3585,-2063.82,0,0
58160.1,60.6901,-2011.77,0,0
59461.7,61.2778,-1962.64,0,0
60763.3,62.4928,-1915.91,0,0
62065,64.5839,-1871.13,0,0
63366.6,68.306,-1827.37,0,0
64668.2,76.9952,-1785.64,0,0
65969.8,91.2442,-1760.05,0,0
67271.5,75.5392,-1734.79,0,0
68573.1,75.8621,-1697.16,0,0
69874.7,75.5435,-1668.14,0,0
71176.3,70.5602,-1637.6,0,0
72478,69.048,-1604.82,0,0
73779.6,67.556,-1576.52,0,0
75081.2,63.9769,-1548.31,0,0
76382.825,60.4291,-1519.12,0,0
77684.45,57.8975,-1490.18,0,0
78986.075,55.6555,-1461.69,0,0
80287.7,54.1054,-1433.65,0,0
81589.325,53.1224,-1406.48,0,0
82890.95,52.4997,-1379.92,0,0
84192.575,52.2253,-1354.31,0,0
85494.2,52.1768,-1329.28,0,0
86795.825,52.2529,-1304.98,0,0
88097.45,52.8378,-1281.09,0,0
89399.075,54.1367,-1257.4,0,0
90700.7,56.434,-1235.64,0,0
92002.3,58.8393,-1214.83,0,0
93303.9,61.7614,-1195.96,0,0
94605.6,62.4439,-1181.36,0,0
95907.2,57.4795,-1163.7,0,0
97208.8,56.1678,-1142.56,0,0
98510.4,55.9558,-1123,0,0
99812.1,55.4076,-1104.08,0,0
101114,54.9886,-1084.36,0,0
102415,56.2302,-1063.95,0,0
103717,60.1876,-1046.14,0,0
105019,63.507,-1032.06,0,0
106320.175,62.8556,-1018.39,0,0
107621.8,60.4752,-1002.79,0,0
108923.425,58.6945,-985.259,0,0
110225.05,58.7359,-966.751,0,0
111526.675,60.9604,-948.822,0,0
112828.3,63.1565,-932.883,0,0
114129.925,64.7024,-916.91,0,0
115431.55,66.6725,-900.052,0,0
116733.175,70.3403,-883.397,0,0
118034.8,76.2731,-867.511,0,0
119336.425,82.6785,-855.822,0,0
120638.05,88.7615,-849.21,0,0
121939.675,86.1295,-841.043,0,0
123241,86.3925,-827.673,0,0
124543,88.0341,-816.306,0,0
125845,89.3514,-805.895,0,0
127146,88.9264,-796.247,0,0
128448,87.2808,-785.411,0,0
129749,85.6635,-772.524,0,0
131051,86.5695,-759.502,0,0
132353,86.1811,-748.538,0,0
133654,85.5182,-736.591,0,0
134956,83.9889,-724.15,0,0
136258,82.5807,-710.725,0,0
137559,82.3985,-695.566,0,0
138860.775,83.616,-682.076,0,0
140162.4,82.7559,-668.74,0,0
141464.025,82.4734,-654.483,0,0
142765.65,81.8224,-638.632,0,0
144067.275,82.052,-621.549,0,0
145368.9,83.6747,-603.448,0,0
146670.525,86.38,-584.749,0,0
147972.15,90.5106,-564.884,0,0
149273.775,97.0524,-544.771,0,0
150575.4,107.404,-524.467,0,0
151877.025,120.05,-507.619,0,0
153178.65,132.733,-493.808,0,0
154480,142.871,-481.951,0,0
155782,150.555,-465.7,0,0
157084,162.571,-448.428,0,0
158385,179.364,-436.649,0,0
159687,183.785,-422.944,0,0
160988,199.025,-394.24,0,0
162290,224.978,-369.557,0,0
163592,260.166,-349.052,0,0
164893,307.456,-337.455,0,0
166195,360.074,-349.045,0,0
167497,399.797,-381.984,0,0
168798,420.757,-417.297,0,0
170100,421.807,-458.601,0,0
171401.375,406.962,-476.18,0,0
172703.0,401.182,-479.091,0,0
174004.625,410.59,-487.311,0,0
175306.25,414.029,-505.277,0,0
176607.875,408.227,-523.497,0,0
177909.5,387.673,-540.224,0,0
179211.125,364.62,-534.164,0,0
180512.75,359.42,-520.671,0,0
181814.375,363.467,-516.27,0,0
183116.0,357.274,-522.995,0,0
184417.625,342.031,-521.082,0,0
185719.25,328.201,-507.973,0,0
187021,322.428,-485.162,0,0
188322,328.858,-466.016,0,0
189624,334.204,-452.043,0,0
190926,343.866,-437.35,0,0
192227,353.043,-423.99,0,0
193529,363.892,-406.151,0,0
194831,386.622,-388.247,0,0
196132,419.86,-382.997,0,0
197434,441.964,-395.634,0,0
198735,454.49,-400.3,0,0
200037,466.804,-404.07,0,0
201339,472.264,-401.902,0,0
202640.35,490.673,-392.536,0,0
203941.975,519.977,-391.098,0,0
205243.6,548.484,-402.763,0,0
206545.225,563.338,-420.529,0,0
207846.85,580.107,-420.337,0,0
209148.475,611.951,-428.996,0,0
210450.1,644.559,-450.556,0,0
211751.725,671.646,-482.142,0,0
213053.35,692.237,-517.45,0,0
214354.975,706.83,-559.342,0,0
215656.6,715.143,-604.508,0,0
216958.225,711.477,-652.108,0,0
218259.85,697.38,-694.887,0,0
219561,678.927,-731.534,0,0
220863,659.074,-769.864,0,0
222165,629.23,-805.931,0,0
223466,585.321,-833.165,0,0
224768,542.628,-835.766,0,0
226070,520.073,-831.648,0,0
227371,504.17,-840.287,0,0
228673,479.705,-853.278,0,0
229974,451.1,-859.099,0,0
231276,423.591,-861.04,0,0
232578,397.901,-859.653,0,0
233879,373.483,-856.682,0,0
235180.95,350.515,-852.184,0,0
236482.575,326.819,-847.511,0,0
237784.2,302.562,-839.14,0,0
239085.825,278.622,-825.533,0,0
240387.45,260.849,-807.766,0,0
241689.075,247.049,-790.396,0,0
242990.7,238.408,-772.133,0,0
244292.325,233.287,-757.41,0,0
245593.95,228.202,-745.59,0,0
246895.575,223.072,-733.882,0,0
248197.2,218.745,-722.196,0,0
249498.825,217.772,-710.972,0,0
250800,216.48,-704.976,0,0
252102,210.556,-699.232,0,0
253404,202.191,-689.135,0,0
254705,197.076,-674.117,0,0
256007,197.345,-657.276,0,0
257309,205.041,-642.966,0,0
258610,213.504,-634.53,0,0
259912,224.367,-626.596,0,0
261213,239.703,-627.183,0,0
262515,249.962,-638.744,0,0
263817,249.244,-653.113,0,0
265118,239.285,-664.345,0,0
266420,224.746,-667.75,0,0
267721.55,210.858,-663.559,0,0
269023.175,201.489,-654.697,0,0
270324.8,196.018,-645.736,0,0
271626.425,193.923,-636.14,0,0
272928.05,194.103,-629.433,0,0
274229.675,192.909,-621.879,0,0
275531.3,196.177,-613.413,0,0
276832.925,203.777,-608.78,0,0
278134.55,211.345,-610.532,0,0
279436.175,215.299,-617.06,0,0
280737.8,213.132,-625.068,0,0
282039.425,206.656,-630.348,0,0
283341,198.165,-632.364,0,0
284643,189.148,-631.267,0,0
285944,180.996,-627.077,0,0
287246,175.222,-620.354,0,0
288548,173.725,-613.595,0,0
289849,173.534,-610.29,0,0
291151,171.833,-608.103,0,0
292452,168.737,-605.485,0,0
293754,166.797,-600.296,0,0
295056,168.467,-596.187,0,0
296357,171.071,-596.059,0,0
297659,171.131,-598.859,0,0
298960.525,167.831,-601.834,0,0
300262.15,162.656,-603.442,0,0
301563.775,156.395,-603.534,0,0
302865.4,149.728,-601.821,0,0
304167.025,143.602,-598.759,0,0
305468.65,138.081,-594.403,0,0
306770.275,133.942,-589.139,0,0
308071.9,131.664,-584.3,0,0
309373.525,129.793,-581.034,0,0
310675.15,127.041,-578.544,0,0
311976.775,123.137,-575.802,0,0
313278.4,118.553,-571.496,0,0
314580,115.016,-565.612,0,0
315882,113.659,-558.8,0,0
317183,114.386,-553.52,0,0
318485,115.054,-550.285,0,0
319787,114.969,-547.435,0,0
321088,115.144,-544.483,0,0
322390,116.121,-542.345,0,0
323691,116.697,-542.355,0,0
324993,115.388,-543.287,0,0
326295,112.372,-543.843,0,0
327596,108.08,-543.335,0,0
328898,103.565,-541.413,0,0
330200,99.4262,-538.774,0,0
331501.125,95.2913,-535.918,0,0
332802.75,90.9108,-532.373,0,0
334104.375,86.4696,-527.952,0,0
335406.0,82.7534,-522.483,0,0
336707.625,80.046,-516.495,0,0
338009.25,78.0107,-510.464,0,0
339310.875,76.6509,-504.014,0,0
340612.5,76.7558,-497.183,0,0
341914.125,78.6015,-491.347,0,0
343215.75,81.2088,-487.492,0,0
344517.375,83.1249,-485.35,0,0
345819.0,83.3955,-483.829,0,0
347121,82.9288,-481.593,0,0
348422,82.2682,-478.899,0,0
349724,81.8499,-475.503,0,0
351025,82.6148,-472.01,0,0
352327,84.3711,-469.981,0,0
353629,84.6472,-469.722,0,0
354930,83.1499,-468.822,0,0
356232,81.4636,-466.734,0,0
357534,79.8053,-464.01,0,0
358835,78.5961,-460.521,0,0
360137,78.3914,-457.09,0,0
361438,78.4168,-454.213,0,0
362740.1,78.2533,-451.425,0,0
364041.725,78.7082,-448.137,0,0
365343.35,80.2737,-446.13,0,0
366644.975,80.6502,-445.869,0,0
367946.6,78.8884,-445.209,0,0
369248.225,76.5027,-442.514,0,0
370549.85,76.0134,-438.031,0,0
371851.475,77.7737,-435.358,0,0
373153.1,78.2273,-435.078,0,0
374454.725,76.4534,-433.935,0,0
375756.35,74.5674,-431.3,0,0
377057.975,73.6677,-427.555,0,0
378359.6,74.0645,-424.022,0,0
379661,75.0526,-421.411,0,0
380963,75.8939,-419.716,0,0
382264,76.0255,-418.31,0,0
383566,75.8066,-417.021,0,0
384868,74.9514,-415.726,0,0
386169,73.695,-413.732,0,0
387471,72.4783,-411.169,0,0
388773,71.337,-408.008,0,0
390074,70.9365,-404.125,0,0
391376,71.5413,-400.042,0,0
392677,73.3005,-396.391,0,0
393979,75.7929,-393.941,0,0
395280.7,78.1865,-392.705,0,0
396582.325,80.0382,-392.32,0,0
397883.95,81.1517,-392.719,0,0
399185.575,80.9532,-393.272,0,0
400006.6,80.395,-393.301,0,0

File: sample_4.csv
Frequency (Hz),Impedance (ohms),Phase (Radians),Temperature (C),Humidity (%)
10000.0,262.51,-11871.1,0,0
11301.625,233.544,-10517,0,0
12603.25,212.111,-9434.7,0,0
13904.875,191.864,-8555.16,0,0
15206.5,180.802,-7829.57,0,0
16508.125,182.308,-7214.45,0,0
17809.75,156.08,-6709.05,0,0
19111.375,144.824,-6251.7,0,0
20413.0,140.144,-5851.21,0,0
21714.625,145.602,-5506.21,0,0
23016.25,124.829,-5206.17,0,0
24317.875,115.892,-4922.05,0,0
25619.5,111.218,-4668.21,0,0
26921.1,106.142,-4439.22,0,0
28222.7,122.097,-4234.89,0,0
29524.4,111.545,-4057.27,0,0
30826,97.8863,-3884.53,0,0
32127.6,99.4183,-3724.2,0,0
33429.2,89.5493,-3584.22,0,0
34730.9,84.6943,-3445.74,0,0
36032.5,81.4378,-3317.84,0,0
37334.1,79.4823,-3198.95,0,0
38635.7,76.8165,-3087.52,0,0
39937.4,76.5253,-2981.8,0,0
41239,79.9135,-2887.56,0,0
42540.6,78.2787,-2799.3,0,0
43842.225,73.217,-2716.06,0,0
45143.85,70.9203,-2634.98,0,0
46445.475,70.1917,-2557.99,0,0
47747.1,69.9268,-2487.94,0,0
49048.725,65.9627,-2418.93,0,0
50350.35,64.2049,-2351.39,0,0
51651.975,63.449,-2286.65,0,0
52953.6,65.3486,-2223.99,0,0
54255.225,73.5435,-2167.4,0,0
55556.85,71.8906,-2124.53,0,0
56858.475,65.361,-2070.67,0,0
58160.1,66.4118,-2018.36,0,0
59461.7,70.4199,-1967.9,0,0
60763.3,79.1781,-1929.59,0,0
62065,69.912,-1896.71,0,0
63366.6,63.9991,-1851.27,0,0
64668.2,64.2774,-1807.88,0,0
65969.8,66.0039,-1767.39,0,0
67271.5,70.2432,-1731.15,0,0
68573.1,73.5746,-1702.15,0,0
69874.7,66.1967,-1672.19,0,0
71176.3,64.4244,-1638.04,0,0
72478,59.174,-1606.61,0,0
73779.6,57.6939,-1570.28,0,0
75081.2,59.5534,-1537.37,0,0
76382.825,62.0159,-1508.41,0,0
77684.45,64.7984,-1480.91,0,0
78986.075,63.7366,-1458.37,0,0
80287.7,60.6629,-1431.53,0,0
81589.325,60.1184,-1405.54,0,0
82890.95,58.8256,-1380.51,0,0
84192.575,57.7293,-1355.62,0,0
85494.2,56.8717,-1331.44,0,0
86795.825,56.2064,-1307.83,0,0
88097.45,54.8682,-1285.29,0,0
89399.075,53.2985,-1260.98,0,0
90700.7,53.1687,-1237.92,0,0
92002.3,53.5035,-1214.87,0,0
93303.9,54.7461,-1194.03,0,0
94605.6,53.3902,-1173.71,0,0
95907.2,52.7622,-1151.17,0,0
97208.8,53.6677,-1129.46,0,0
98510.4,54.9221,-1108.04,0,0
99812.1,57.542,-1087.35,0,0
101114,61.8004,-1068.83,0,0
102415,61.1201,-1054.47,0,0
103717,58.0111,-1031.82,0,0
105019,61.7695,-1008.2,0,0
106320.175,68.2675,-987.756,0,0
107621.8,75.0787,-969.923,0,0
108923.425,83.382,-953.216,0,0
110225.05,91.5804,-940.568,0,0
111526.675,97.7666,-929.77,0,0
112828.3,102.826,-919.99,0,0
114129.925,106.221,-911.243,0,0
115431.55,108.065,-903.022,0,0
116733.175,107.645,-894.657,0,0
118034.8,105.42,-883.882,0,0
119336.425,106.486,-869.975,0,0
120638.05,111.438,-864.719,0,0
121939.675,104.785,-858.524,0,0
123241,100.052,-846.206,0,0
124543,96.8925,-833.665,0,0
125845,94.8591,-821.38,0,0
127146,91.5502,-810.455,0,0
128448,86.7703,-798.747,0,0
129749,80.2787,-784.056,0,0
131051,75.4209,-766.406,0,0
132353,72.7641,-747.761,0,0
133654,71.9542,-728.813,0,0
134956,72.5786,-709.911,0,0
136258,74.7481,-691.423,0,0
137559,77.4441,-674.214,0,0
138860.775,79.3208,-656.395,0,0
140162.4,82.5974,-637.459,0,0
141464.025,87.5891,-618.497,0,0
142765.65,93.551,-600.218,0,0
144067.275,100.239,-581.929,0,0
145368.9,107.879,-563.395,0,0
146670.525,117.218,-544.689,0,0
147972.15,128.109,-526.677,0,0
149273.775,140.682,-508.648,0,0
150575.4,155.55,-490.825,0,0
151877.025,174.159,-474.481,0,0
153178.65,196.167,-462.41,0,0
154480,217.84,-457.097,0,0
155782,234.724,-453.31,0,0
157084,250.257,-451.401,0,0
158385,265.092,-445.846,0,0
159687,285.593,-443.197,0,0
160988,303.652,-451.165,0,0
162290,309.866,-456.981,0,0
163592,314.938,-456.179,0,0
164893,324.291,-450.21,0,0
166195,339.286,-444.048,0,0
167497,364.974,-442.358,0,0
168798,392.28,-458.393,0,0
170100,409.106,-486.596,0,0
171401.375,406.414,-524.782,0,0
172703.0,381.822,-550.405,0,0
174004.625,348.578,-556.383,0,0
175306.25,320.972,-545.122,0,0
176607.875,302.861,-523.721,0,0
177909.5,296.215,-500.147,0,0
179211.125,295.612,-479.217,0,0
180512.75,299.153,-460.274,0,0
181814.375,303.339,-443.634,0,0
183116.0,306.523,-426.563,0,0
184417.625,310.877,-405.928,0,0
185719.25,319.003,-382.384,0,0
187021,331.844,-357.06,0,0
188322,349.928,-330.429,0,0
189624,374.792,-302.987,0,0
190926,408.467,-276.839,0,0
192227,450.937,-255.147,0,0
193529,501.285,-241.233,0,0
194831,556.498,-236.563,0,0
196132,615.155,-239.903,0,0
197434,680.66,-252.783,0,0
198735,752.689,-283.559,0,0
200037,821.888,-341.149,0,0
201339,870.84,-422.252,0,0
202640.35,890.058,-511.162,0,0
203941.975,887.808,-593.678,0,0
205243.6,868.263,-669.81,0,0
206545.225,838.199,-733.355,0,0
207846.85,801.088,-795.462,0,0
209148.475,741.948,-842.366,0,0
210450.1,683.175,-863.23,0,0
211751.725,632.953,-869.283,0,0
213053.35,594.914,-865.763,0,0
214354.975,566.916,-859.893,0,0
215656.6,551.394,-859.386,0,0
216958.225,531.592,-868.181,0,0
218259.85,509.358,-872.527,0,0
219561,488.426,-876.909,0,0
220863,465.898,-882.325,0,0
222165,442.198,-884.869,0,0
223466,419.288,-885.167,0,0
224768,397.232,-885.898,0,0
226070,372.249,-886.735,0,0
227371,344.086,-883.092,0,0
228673,315.825,-873.569,0,0
229974,291.585,-857.526,0,0
231276,273.136,-839.567,0,0
232578,259.189,-821.844,0,0
233879,248.331,-804.564,0,0
235180.95,240.244,-788.502,0,0
236482.575,234.051,-774.331,0,0
237784.2,228.524,-759.739,0,0
239085.825,226.832,-746.526,0,0
240387.45,225.891,-736.675,0,0
241689.075,224.246,-729.123,0,0
242990.7,221.257,-723.121,0,0
244292.325,216.256,-717.426,0,0
245593.95,209.656,-709.6,0,0
246895.575,204.202,-699.701,0,0
248197.2,201.523,-689.327,0,0
249498.825,199.112,-680.849,0,0
250800,196.488,-672.822,0,0
252102,192.931,-665.2,0,0
253404,187.016,-655.721,0,0
254705,182.572,-641.912,0,0
256007,180.694,-625.887,0,0
257309,183.794,-607.541,0,0
258610,192.567,-589.775,0,0
259912,207.151,-574.742,0,0
261213,226.295,-565.513,0,0
262515,246.554,-563.479,0,0
263817,267.261,-566.849,0,0
265118,286.262,-578.539,0,0
266420,298.518,-596.663,0,0
267721.55,303.245,-617.923,0,0
269023.175,300.428,-638.968,0,0
270324.8,287.553,-656.278,0,0
271626.425,275.026,-663.39,0,0
272928.05,265.631,-671.059,0,0
274229.675,253.733,-679.778,0,0
275531.3,236.222,-686.779,0,0
276832.925,214.968,-686.026,0,0
278134.55,195.83,-676.298,0,0
279436.175,184.888,-660.566,0,0
280737.8,183.426,-648.284,0,0
282039.425,181.993,-641.424,0,0
283341,180.731,-633.935,0,0
284643,181.474,-630.771,0,0
285944,178.476,-629.556,0,0
287246,171.417,-625.674,0,0
288548,165.671,-616.333,0,0
289849,166.32,-602.587,0,0
291151,176.052,-592.976,0,0
292452,188.659,-592.593,0,0
293754,197.763,-601.186,0,0
295056,198.432,-613.943,0,0
296357,190.573,-624.699,0,0
297659,178.864,-628.769,0,0
298960.525,168.804,-628.348,0,0
300262.15,160.199,-626.525,0,0
301563.775,151.995,-623.816,0,0
302865.4,144.621,-619.494,0,0
304167.025,138.197,-614.888,0,0
305468.65,132.431,-609.25,0,0
306770.275,128.186,-603.029,0,0
308071.9,125.879,-597.248,0,0
309373.525,124.24,-593.246,0,0
310675.15,121.59,-590.324,0,0
311976.775,117.93,-586.624,0,0
313278.4,114.793,-582.135,0,0
314580,112.702,-577.334,0,0
315882,111.508,-573.35,0,0
317183,110.506,-570.345,0,0
318485,109.044,-568.405,0,0
319787,106.956,-567.371,0,0
321088,102.87,-566.713,0,0
322390,96.7996,-565.042,0,0
323691,89.6597,-560.088,0,0
324993,84.8823,-552.897,0,0
326295,82.1598,-546.178,0,0
327596,79.5803,-539.773,0,0
328898,77.7611,-532.67,0,0
330200,77.4513,-525.433,0,0
331501.125,78.7432,-519.692,0,0
332802.75,80.0456,-515.722,0,0
334104.375,80.1414,-512.788,0,0
335406.0,78.9018,-509.671,0,0
336707.625,76.9349,-505.695,0,0
338009.25,75.3042,-499.95,0,0
339310.875,75.0374,-493.697,0,0
340612.5,76.2475,-487.356,0,0
341914.125,79.1415,-481.585,0,0
343215.75,83.5771,-477.914,0,0
344517.375,87.228,-477.065,0,0
345819.0,89.1265,-477.432,0,0
347121,89.1919,-477.93,0,0
348422,87.8934,-477.616,0,0
349724,86.0071,-476.417,0,0
351025,83.9041,-474.172,0,0
352327,82.0695,-471.186,0,0
353629,80.8852,-467.381,0,0
354930,81.0266,-463.758,0,0
356232,81.3073,-461.301,0,0
357534,80.7531,-459.242,0,0
358835,79.4221,-456.74,0,0
360137,78.0084,-452.98,0,0
361438,77.7342,-448.652,0,0
362740.1,78.463,-444.623,0,0
364041.725,79.3883,-441.483,0,0
365343.35,79.6832,-438.507,0,0
366644.975,79.7979,-434.608,0,0
367946.6,81.0761,-429.846,0,0
369248.225,84.0092,-425.315,0,0
370549.85,88.5776,-422.152,0,0
371851.475,93.7144,-420.878,0,0
373153.1,98.5717,-422.316,0,0
374454.725,100.982,-425.64,0,0
375756.35,100.721,-428.511,0,0
377057.975,99.5327,-429.862,0,0
378359.6,98.7251,-430.558,0,0
379661,97.2562,-431.404,0,0
380963,95.5682,-431.179,0,0
382264,94.3562,-430.276,0,0
383566,94.9513,-430.364,0,0
384868,93.793,-433.228,0,0
386169,89.1156,-435.309,0,0
387471,83.0645,-433.961,0,0
388773,78.724,-429.668,0,0
390074,77.7346,-424.967,0,0
391376,78.6104,-422.833,0,0
392677,77.833,-423.553,0,0
393979,73.7961,-423.623,0,0
395280.7,68.998,-421.054,0,0
396582.325,65.2585,-416.718,0,0
397883.95,62.9018,-411.955,0,0
399185.575,61.1916,-407.112,0,0
400006.6,60.4422,-403.973,0,0