Folder: ML_Dmg_Mehdi_Dataset/Accelerated corrosion test data/2025-10-22_06-00-04 (part 3)

File: sample_5.csv
Frequency (Hz),Impedance (ohms),Phase (Radians),Temperature (C),Humidity (%)
10000.0,3078.03,-2405.17,0,0
11301.625,2844.48,-2343.47,0,0
12603.25,2664.59,-2309.3,0,0
13904.875,2939.26,-3039.29,0,0
15206.5,2272.72,-2132.77,0,0
16508.125,2154.6,-2107.12,0,0
17809.75,610.645,-93.726,0,0
19111.375,1157.37,-383.232,0,0
20413.0,1708.4,-1125.94,0,0
21714.625,1769.42,-1991.18,0,0
23016.25,1684.6,-1962.66,0,0
24317.875,1818.6,-2092.35,0,0
25619.5,1599.8,-2556.09,0,0
26921.1,1514.34,-2489.58,0,0
28222.7,1431.55,-2429.35,0,0
29524.4,1352.06,-2375.61,0,0
30826,1281.53,-2318.21,0,0
32127.6,1216.35,-2263.19,0,0
33429.2,1163.03,-2199.9,0,0
34730.9,1107.37,-2147.65,0,0
36032.5,1050.62,-2105,0,0
37334.1,1005.35,-2052.65,0,0
38635.7,965.954,-1999.03,0,0
39937.4,949.314,-1922.8,0,0
41239,884.235,-1912.45,0,0
42540.6,846.797,-1873.42,0,0
43842.225,811.99,-1833.26,0,0
45143.85,783.019,-1790.1,0,0
46445.475,753.392,-1751.85,0,0
47747.1,725.834,-1715.13,0,0
49048.725,700.15,-1679.45,0,0
50350.35,677.066,-1645.1,0,0
51651.975,659.418,-1607.68,0,0
52953.6,639.826,-1573.69,0,0
54255.225,636.576,-1525.44,0,0
55556.85,637.812,-1474.79,0,0
56858.475,616.672,-1450.61,0,0
58160.1,592.315,-1430.92,0,0
59461.7,571.227,-1407.8,0,0
60763.3,544.079,-1391.18,0,0
62065,522.53,-1370.22,0,0
63366.6,489.654,-1361.25,0,0
64668.2,494.487,-1321.69,0,0
65969.8,480.307,-1298.56,0,0
67271.5,465.936,-1276.85,0,0
68573.1,452.719,-1255.79,0,0
69874.7,440.174,-1235.07,0,0
71176.3,427.61,-1216.37,0,0
72478,415.599,-1197.25,0,0
73779.6,405.578,-1178.13,0,0
75081.2,395.97,-1160.65,0,0
76382.825,384.628,-1143.26,0,0
77684.45,374.317,-1124.94,0,0
78986.075,362.722,-1108.64,0,0
80287.7,352.979,-1092.25,0,0
81589.325,343.679,-1075.13,0,0
82890.95,334.231,-1057.99,0,0
84192.575,325.657,-1040.76,0,0
85494.2,317.962,-1024.1,0,0
86795.825,310.123,-1007.82,0,0
88097.45,302.789,-990.518,0,0
89399.075,295.568,-973.944,0,0
90700.7,290.36,-958.567,0,0
92002.3,285.955,-943.633,0,0
93303.9,278.988,-930.369,0,0
94605.6,273.05,-915.29,0,0
95907.2,267.163,-900.978,0,0
97208.8,261.748,-886.35,0,0
98510.4,256.249,-871.664,0,0
99812.1,251.341,-857.164,0,0
101114,249.297,-842.33,0,0
102415,243.532,-830.385,0,0
103717,235.945,-819.039,0,0
105019,231.905,-805.811,0,0
106320.175,226.972,-792.38,0,0
107621.8,222.035,-778.769,0,0
108923.425,218.098,-765.062,0,0
110225.05,214.132,-751.632,0,0
111526.675,210.736,-737.682,0,0
112828.3,207.249,-724.137,0,0
114129.925,204.883,-710.654,0,0
115431.55,201.153,-698.192,0,0
116733.175,199.61,-684.429,0,0
118034.8,199.154,-670.612,0,0
119336.425,197.822,-658.622,0,0
120638.05,195.145,-647.802,0,0
121939.675,193.39,-636.148,0,0
123241,191.251,-624.071,0,0
124543,188.997,-611.149,0,0
125845,188.465,-598.393,0,0
127146,187.815,-586.155,0,0
128448,185.962,-574.667,0,0
129749,184.485,-562.246,0,0
131051,182.855,-548.884,0,0
132353,180.573,-535.074,0,0
133654,179.343,-520.908,0,0
134956,180.181,-505.916,0,0
136258,181.537,-490.873,0,0
137559,183.702,-476.641,0,0
138860.775,186.409,-463.205,0,0
140162.4,188.929,-449.932,0,0
141464.025,191.632,-436.655,0,0
142765.65,193.885,-423.43,0,0
144067.275,196.221,-409.898,0,0
145368.9,198.68,-395.221,0,0
146670.525,201.777,-379.78,0,0
147972.15,206.067,-363.602,0,0
149273.775,210.854,-347.463,0,0
150575.4,216.56,-329.552,0,0
151877.025,225.133,-310.857,0,0
153178.65,235.715,-292.326,0,0
154480,249.121,-274.391,0,0
155782,265.452,-257.96,0,0
157084,283.138,-244.768,0,0
158385,299.419,-233.069,0,0
159687,317.637,-220.6,0,0
160988,338.243,-209.986,0,0
162290,360.744,-202.595,0,0
163592,383.471,-198.842,0,0
164893,403.898,-198.506,0,0
166195,422.492,-198.671,0,0
167497,440.401,-199.163,0,0
168798,457.527,-200.541,0,0
170100,474.375,-201.973,0,0
171401.375,491.853,-205.088,0,0
172703.0,507.542,-209.173,0,0
174004.625,521.64,-213.614,0,0
175306.25,535.648,-216.642,0,0
176607.875,549.766,-218.175,0,0
177909.5,566.571,-222.606,0,0
179211.125,581.911,-227.933,0,0
180512.75,595.728,-232.381,0,0
181814.375,611.648,-236.465,0,0
183116.0,630.584,-241.976,0,0
184417.625,648.797,-249.597,0,0
185719.25,665.65,-258.339,0,0
187021,682.278,-265.74,0,0
188322,701.522,-272.589,0,0
189624,724.634,-280.576,0,0
190926,751.75,-293.219,0,0
192227,781.34,-311.941,0,0
193529,810.375,-337.351,0,0
194831,839.08,-373.073,0,0
196132,860.931,-413.219,0,0
197434,876.686,-460.705,0,0
198735,882.528,-509.758,0,0
200037,877.565,-555.082,0,0
201339,869.16,-610.697,0,0
202640.35,850.229,-656.697,0,0
203941.975,825.016,-700.92,0,0
205243.6,793.64,-740.081,0,0
206545.225,757.838,-771.709,0,0
207846.85,719.109,-796.747,0,0
209148.475,679.95,-812.497,0,0
210450.1,640.886,-823.866,0,0
211751.725,602.524,-831.529,0,0
213053.35,566.462,-833.921,0,0
214354.975,533.313,-830.941,0,0
215656.6,502.466,-826.016,0,0
216958.225,474.393,-818.014,0,0
218259.85,449.242,-807.425,0,0
219561,425.464,-796.738,0,0
220863,404.994,-783.213,0,0
222165,387.351,-768.767,0,0
223466,373.149,-753.644,0,0
224768,361.384,-738.737,0,0
226070,352.124,-724.695,0,0
227371,345.402,-711.019,0,0
228673,340.407,-698.134,0,0
229974,336.419,-686.92,0,0
231276,333.899,-676.208,0,0
232578,332.23,-666.657,0,0
233879,332.141,-657.359,0,0
235180.95,332.536,-649.877,0,0
236482.575,334.155,-643.277,0,0
237784.2,335.963,-639.047,0,0
239085.825,338.553,-635.909,0,0
240387.45,340.589,-635.037,0,0
241689.075,342.07,-635.158,0,0
242990.7,342.359,-636.805,0,0
244292.325,340.99,-638.99,0,0
245593.95,337.714,-641.453,0,0
246895.575,333.523,-642.128,0,0
248197.2,328.499,-640.781,0,0
249498.825,325.516,-635.936,0,0
250800,329.201,-630.52,0,0
252102,337.816,-632.606,0,0
253404,343.194,-643.506,0,0
254705,341.386,-657.625,0,0
256007,332.992,-670.827,0,0
257309,320.093,-680.77,0,0
258610,305.602,-686.256,0,0
259912,290.56,-688.313,0,0
261213,276.448,-687.791,0,0
262515,264.132,-684.755,0,0
263817,251.744,-681.556,0,0
265118,241.457,-676.762,0,0
266420,233.226,-670.895,0,0
267721.55,224.969,-665.965,0,0
269023.175,218.561,-660.412,0,0
270324.8,210.236,-656.464,0,0
271626.425,202.141,-652.067,0,0
272928.05,194.275,-646.924,0,0
274229.675,185.701,-641.888,0,0
275531.3,179.109,-635.203,0,0
276832.925,171.882,-628.633,0,0
278134.55,165.872,-621.072,0,0
279436.175,160.069,-613.525,0,0
280737.8,156.429,-605.642,0,0
282039.425,154.147,-598.517,0,0
283341,153.546,-591.904,0,0
284643,151.482,-586.68,0,0
285944,149.798,-581.596,0,0
287246,147.641,-577.071,0,0
288548,146.125,-572.762,0,0
289849,144.784,-568.979,0,0
291151,142.716,-565.564,0,0
292452,139.684,-562.103,0,0
293754,136.807,-558.168,0,0
295056,133.609,-553.964,0,0
296357,131.523,-548.893,0,0
297659,129.829,-543.688,0,0
298960.525,129.532,-538.77,0,0
300262.15,128.466,-535.308,0,0
301563.775,127.473,-532.349,0,0
302865.4,123.592,-530.932,0,0
304167.025,124.019,-527.083,0,0
305468.65,121.649,-524.32,0,0
306770.275,119.923,-520.807,0,0
308071.9,118.371,-517.207,0,0
309373.525,115.521,-514.179,0,0
310675.15,113.629,-510.697,0,0
311976.775,111.479,-507.317,0,0
313278.4,109.864,-503.618,0,0
314580,107.724,-500.278,0,0
315882,106.291,-496.703,0,0
317183,104.525,-493.449,0,0
318485,103.369,-489.912,0,0
319787,102.017,-486.601,0,0
321088,100.989,-483.467,0,0
322390,99.9129,-480.428,0,0
323691,98.3425,-477.641,0,0
324993,97.182,-474.686,0,0
326295,95.6304,-471.76,0,0
327596,93.8267,-468.776,0,0
328898,92.5354,-465.553,0,0
330200,91.4011,-462.146,0,0
331501.125,90.295,-458.937,0,0
332802.75,89.2972,-455.677,0,0
334104.375,88.2723,-452.581,0,0
335406.0,87.413,-449.427,0,0
336707.625,86.5123,-446.392,0,0
338009.25,84.5766,-443.769,0,0
339310.875,84.4343,-440.479,0,0
340612.5,83.8421,-437.402,0,0
341914.125,83.1972,-434.457,0,0
343215.75,82.82,-431.362,0,0
344517.375,81.5539,-428.697,0,0
345819.0,81.0415,-425.809,0,0
347121,79.5151,-423.433,0,0
348422,78.8249,-420.654,0,0
349724,78.8493,-417.557,0,0
351025,78.0878,-414.764,0,0
352327,77.5169,-411.958,0,0
353629,76.4772,-409.304,0,0
354930,75.5878,-406.566,0,0
356232,75.0338,-403.704,0,0
357534,74.442,-400.819,0,0
358835,73.8999,-397.945,0,0
360137,73.4437,-395.039,0,0
361438,72.9465,-392.066,0,0
362740.1,72.5211,-389.165,0,0
364041.725,71.466,-386.45,0,0
365343.35,71.1231,-383.524,0,0
366644.975,70.9444,-380.534,0,0
367946.6,70.9323,-377.526,0,0
369248.225,71.0458,-374.585,0,0
370549.85,71.2163,-371.708,0,0
371851.475,71.2914,-369.009,0,0
373153.1,71.5342,-366.425,0,0
374454.725,71.9092,-364.006,0,0
375756.35,72.2322,-361.844,0,0
377057.975,72.1235,-359.848,0,0
378359.6,71.8205,-357.745,0,0
379661,71.3395,-355.428,0,0
380963,70.9974,-352.836,0,0
382264,70.9036,-350.275,0,0
383566,70.7683,-347.944,0,0
384868,70.3651,-345.515,0,0
386169,70.0009,-342.939,0,0
387471,69.4655,-340.267,0,0
388773,69.3323,-337.452,0,0
390074,69.1246,-334.651,0,0
391376,69.1493,-331.737,0,0
392677,69.1057,-328.947,0,0
393979,69.1935,-326.067,0,0
395280.7,69.3458,-323.18,0,0
396582.325,69.5826,-320.29,0,0
397883.95,69.8656,-317.371,0,0
399185.575,70.236,-314.456,0,0
400006.6,70.541,-312.585,0,0

File: sample_6.csv
Frequency (Hz),Impedance (ohms),Phase (Radians),Temperature (C),Humidity (%)
10000.0,4117.05,-6727.88,0,0
11301.625,3490.64,-6310.58,0,0
12603.25,2995.04,-5917.42,0,0
13904.875,2597.39,-5562.26,0,0
15206.5,2273.01,-5234.29,0,0
16508.125,2006.42,-4936.21,0,0
17809.75,1784.84,-4665.35,0,0
19111.375,1599.9,-4419.09,0,0
20413.0,1442.13,-4195.35,0,0
21714.625,1306.85,-3990.29,0,0
23016.25,1191.7,-3799.47,0,0
24317.875,1093.58,-3631.12,0,0
25619.5,1006.75,-3473.76,0,0
26921.1,930.36,-3327.11,0,0
28222.7,862.405,-3195.07,0,0
29524.4,800.248,-3066.88,0,0
30826,752.919,-2952.18,0,0
32127.6,702.831,-2844.54,0,0
33429.2,663.282,-2746.15,0,0
34730.9,619.878,-2652.94,0,0
36032.5,582.923,-2564.15,0,0
37334.1,550.253,-2477.75,0,0
38635.7,522.331,-2396.44,0,0
39937.4,500.875,-2321.1,0,0
41239,479.073,-2255.15,0,0
42540.6,454.836,-2192.03,0,0
43842.225,434.982,-2124.66,0,0
45143.85,420.975,-2065.45,0,0
46445.475,408.38,-2012.4,0,0
47747.1,394.597,-1962.36,0,0
49048.725,381.92,-1918.07,0,0
50350.35,362.689,-1877.77,0,0
51651.975,342.505,-1830.71,0,0
52953.6,328.54,-1783.99,0,0
54255.225,314.902,-1740.39,0,0
55556.85,305.48,-1698.98,0,0
56858.475,295.832,-1657.39,0,0
58160.1,291.133,-1622.77,0,0
59461.7,280.519,-1592.15,0,0
60763.3,267.754,-1559.48,0,0
62065,254.693,-1523.55,0,0
63366.6,251.366,-1486.36,0,0
64668.2,245.097,-1459.92,0,0
65969.8,237.852,-1429.18,0,0
67271.5,231.495,-1402.44,0,0
68573.1,224.087,-1375.48,0,0
69874.7,216.897,-1349.22,0,0
71176.3,209.478,-1323.16,0,0
72478,202.966,-1296.97,0,0
73779.6,197.117,-1271.83,0,0
75081.2,191.654,-1247.53,0,0
76382.825,185.849,-1223.77,0,0
77684.45,180.339,-1200.04,0,0
78986.075,175.295,-1176.53,0,0
80287.7,170.641,-1153.16,0,0
81589.325,167.084,-1129.76,0,0
82890.95,164.29,-1107.42,0,0
84192.575,161.982,-1085.13,0,0
85494.2,161.28,-1063.3,0,0
86795.825,161.196,-1043.46,0,0
88097.45,161.203,-1024.69,0,0
89399.075,162.542,-1006.27,0,0
90700.7,163.285,-992.367,0,0
92002.3,160.284,-976.725,0,0
93303.9,158.575,-961.167,0,0
94605.6,157.69,-944.82,0,0
95907.2,157.822,-929.639,0,0
97208.8,156.819,-916.956,0,0
98510.4,154.396,-902.485,0,0
99812.1,154.013,-888.319,0,0
101114,153.447,-876.5,0,0
102415,150.718,-864.841,0,0
103717,147.258,-853.649,0,0
105019,141.555,-842.378,0,0
106320.175,132.747,-826.633,0,0
107621.8,129.112,-805.183,0,0
108923.425,130.826,-785.542,0,0
110225.05,134.364,-768.674,0,0
111526.675,140.588,-754.093,0,0
112828.3,146.051,-746.165,0,0
114129.925,145.851,-738.318,0,0
115431.55,145.095,-728.303,0,0
116733.175,144.939,-721.994,0,0
118034.8,137.554,-712.785,0,0
119336.425,132.744,-697.114,0,0
120638.05,132.93,-680.769,0,0
121939.675,135.743,-669.258,0,0
123241,134.658,-658.218,0,0
124543,134.153,-645.977,0,0
125845,133.435,-633.716,0,0
127146,132.941,-620.413,0,0
128448,133.887,-606.025,0,0
129749,136.742,-592.783,0,0
131051,139.631,-580.572,0,0
132353,142.897,-568.594,0,0
133654,146.711,-557.501,0,0
134956,150.351,-546.969,0,0
136258,154.566,-537.214,0,0
137559,158.446,-529.18,0,0
138860.775,160.801,-521.525,0,0
140162.4,161.723,-513.568,0,0
141464.025,163.008,-504.631,0,0
142765.65,162.899,-496.195,0,0
144067.275,163.241,-484.61,0,0
145368.9,165.9,-474.321,0,0
146670.525,167.128,-465.212,0,0
147972.15,166.572,-455.154,0,0
149273.775,166.533,-442.25,0,0
150575.4,168.454,-428.258,0,0
151877.025,171.911,-413.958,0,0
153178.65,178.52,-400.486,0,0
154480,183.505,-389.944,0,0
155782,188.381,-376.739,0,0
157084,196.301,-365.56,0,0
158385,201.71,-356.868,0,0
159687,205.943,-345.917,0,0
160988,210.4,-334.43,0,0
162290,215.324,-321.695,0,0
163592,221.316,-308.952,0,0
164893,226.707,-296.678,0,0
166195,231.231,-282.068,0,0
167497,237.42,-265.048,0,0
168798,246.402,-247.15,0,0
170100,256.582,-229.648,0,0
171401.375,267.554,-211.6,0,0
172703.0,279.438,-191.641,0,0
174004.625,293.461,-169.569,0,0
175306.25,311.261,-145.62,0,0
176607.875,333.206,-120.635,0,0
177909.5,360.213,-95.3113,0,0
179211.125,392.758,-70.6405,0,0
180512.75,431.004,-49.0187,0,0
181814.375,472.416,-29.4258,0,0
183116.0,518.155,-10.9562,0,0
184417.625,570.721,7.63423,0,0
185719.25,633.557,24.4411,0,0
187021,710.69,35.6983,0,0
188322,803.929,33.5747,0,0
189624,911.382,7.54192,0,0
190926,1021.19,-51.4664,0,0
192227,1120.35,-143.818,0,0
193529,1196.55,-266.003,0,0
194831,1239.35,-408.444,0,0
196132,1242.08,-558.542,0,0
197434,1205.33,-700.151,0,0
198735,1137.88,-820.235,0,0
200037,1051.87,-913.155,0,0
201339,956.598,-980.392,0,0
202640.35,859.636,-1021.19,0,0
203941.975,768.932,-1040.41,0,0
205243.6,688.481,-1044.68,0,0
206545.225,617.674,-1039.5,0,0
207846.85,555.703,-1027.28,0,0
209148.475,502.196,-1010.74,0,0
210450.1,455.987,-992.416,0,0
211751.725,414.309,-972.39,0,0
213053.35,378.074,-949.748,0,0
214354.975,347.207,-927.018,0,0
215656.6,320.344,-903.391,0,0
216958.225,297.791,-880.272,0,0
218259.85,278.352,-857.9,0,0
219561,261.381,-836.11,0,0
220863,246.854,-814.492,0,0
222165,234.357,-793.282,0,0
223466,224.141,-772.027,0,0
224768,216.567,-751.045,0,0
226070,211.778,-731.063,0,0
227371,209.05,-713.126,0,0
228673,206.731,-696.765,0,0
229974,205.285,-680.597,0,0
231276,204.982,-664.576,0,0
232578,206.451,-649.107,0,0
233879,209.812,-634.336,0,0
235180.95,215.151,-620.714,0,0
236482.575,222.205,-608.533,0,0
237784.2,231.114,-598.37,0,0
239085.825,241.435,-590.511,0,0
240387.45,252.99,-585.52,0,0
241689.075,264.866,-583.785,0,0
242990.7,276.485,-585.337,0,0
244292.325,287.43,-590.522,0,0
245593.95,295.543,-599.651,0,0
246895.575,299.275,-610.121,0,0
248197.2,300.161,-620.123,0,0
249498.825,299.2,-628.993,0,0
250800,299.097,-637.902,0,0
252102,297.263,-650.302,0,0
253404,290.946,-663.829,0,0
254705,279.758,-676.347,0,0
256007,264.785,-685.481,0,0
257309,248.385,-690.263,0,0
258610,232.356,-691.488,0,0
259912,217.263,-690.243,0,0
261213,203.215,-687.02,0,0
262515,190.513,-682.267,0,0
263817,179.28,-676.623,0,0
265118,169.178,-670.459,0,0
266420,160.189,-663.871,0,0
267721.55,152.113,-657.27,0,0
269023.175,144.74,-650.597,0,0
270324.8,138.041,-643.801,0,0
271626.425,131.849,-637.047,0,0
272928.05,126.258,-630.333,0,0
274229.675,121.055,-623.637,0,0
275531.3,116.289,-616.936,0,0
276832.925,111.916,-610.225,0,0
278134.55,107.929,-603.508,0,0
279436.175,104.421,-596.645,0,0
280737.8,101.861,-589.708,0,0
282039.425,99.9951,-583.896,0,0
283341,97.7536,-578.514,0,0
284643,95.5627,-573.016,0,0
285944,93.9499,-567.671,0,0
287246,92.5001,-563.257,0,0
288548,90.2918,-559.097,0,0
289849,88.0613,-554.604,0,0
291151,86.0607,-549.928,0,0
292452,84.1727,-545.627,0,0
293754,82.0341,-541.487,0,0
295056,79.8541,-537.126,0,0
296357,77.5396,-532.278,0,0
297659,75.8842,-527.226,0,0
298960.525,74.9673,-522.569,0,0
300262.15,73.9039,-518.645,0,0
301563.775,72.4997,-514.663,0,0
302865.4,71.0572,-510.623,0,0
304167.025,69.7688,-506.36,0,0
305468.65,68.7667,-502.332,0,0
306770.275,67.7779,-498.595,0,0
308071.9,66.6152,-494.854,0,0
309373.525,65.5154,-491.102,0,0
310675.15,64.4646,-487.375,0,0
311976.775,63.521,-483.787,0,0
313278.4,62.5261,-480.182,0,0
314580,61.5308,-476.595,0,0
315882,60.5413,-473.014,0,0
317183,59.7386,-469.473,0,0
318485,58.8207,-466.001,0,0
319787,58.0541,-462.429,0,0
321088,57.3075,-459.016,0,0
322390,56.6527,-455.555,0,0
323691,55.9956,-452.265,0,0
324993,55.3205,-449.041,0,0
326295,54.6346,-445.737,0,0
327596,53.9306,-442.448,0,0
328898,53.3089,-439.101,0,0
330200,52.8202,-435.823,0,0
331501.125,52.3981,-432.545,0,0
332802.75,52.0079,-429.434,0,0
334104.375,51.5867,-426.303,0,0
335406.0,51.2289,-423.157,0,0
336707.625,50.9009,-420.127,0,0
338009.25,50.601,-417.043,0,0
339310.875,50.2301,-414.077,0,0
340612.5,49.9831,-411.012,0,0
341914.125,49.7817,-407.951,0,0
343215.75,49.7715,-405.028,0,0
344517.375,49.6595,-402.229,0,0
345819.0,49.5102,-399.387,0,0
347121,49.4433,-396.483,0,0
348422,49.4934,-393.67,0,0
349724,49.6488,-390.976,0,0
351025,49.8002,-388.346,0,0
352327,49.9003,-385.864,0,0
353629,50.0299,-383.478,0,0
354930,50.0857,-381.211,0,0
356232,50.0344,-378.989,0,0
357534,49.8549,-376.722,0,0
358835,49.7014,-374.365,0,0
360137,49.5022,-372.01,0,0
361438,49.2773,-369.703,0,0
362740.1,49.1052,-367.264,0,0
364041.725,48.9892,-364.799,0,0
365343.35,48.9005,-362.38,0,0
366644.975,48.8935,-359.934,0,0
367946.6,48.8614,-357.66,0,0
369248.225,48.833,-355.321,0,0
370549.85,48.8229,-352.934,0,0
371851.475,48.9142,-350.609,0,0
373153.1,49.0578,-348.402,0,0
374454.725,49.061,-346.423,0,0
375756.35,48.8305,-344.406,0,0
377057.975,48.4534,-342.177,0,0
378359.6,48.2161,-339.818,0,0
379661,47.9449,-337.428,0,0
380963,47.7751,-334.87,0,0
382264,47.7657,-332.247,0,0
383566,47.9984,-329.801,0,0
384868,47.9844,-327.615,0,0
386169,47.9214,-325.233,0,0
387471,47.8749,-322.782,0,0
388773,47.8286,-320.288,0,0
390074,47.8715,-317.76,0,0
391376,47.9569,-315.228,0,0
392677,48.0402,-312.678,0,0
393979,48.1612,-310.108,0,0
395280.7,48.3166,-307.478,0,0
396582.325,48.52,-304.856,0,0
397883.95,48.749,-302.168,0,0
399185.575,49.014,-299.513,0,0
400006.6,49.2222,-297.769,0,0