Folder: ML_Dmg_Mehdi_Dataset/Accelerated corrosion test data/2025-10-12_18-00-03 (part 4)

File: sample_8.csv
Frequency (Hz),Impedance (ohms),Phase (Radians),Temperature (C),Humidity (%)
10000.0,321.726,-10854,0,0
11301.625,285.147,-9619.98,0,0
12603.25,261.991,-8640.7,0,0
13904.875,231.832,-7846.33,0,0
15206.5,212.16,-7180.47,0,0
16508.125,195.307,-6620.55,0,0
17809.75,181.872,-6139.39,0,0
19111.375,172.537,-5722.76,0,0
20413.0,164.249,-5363.07,0,0
21714.625,154.759,-5045.79,0,0
23016.25,148.087,-4765.64,0,0
24317.875,137.663,-4511.05,0,0
25619.5,130.445,-4281.87,0,0
26921.1,125.405,-4073.03,0,0
28222.7,122.023,-3884.64,0,0
29524.4,119.864,-3712.68,0,0
30826,118.511,-3556.53,0,0
32127.6,116.314,-3412.8,0,0
33429.2,118.885,-3281.03,0,0
34730.9,114.584,-3166.11,0,0
36032.5,106.765,-3056.93,0,0
37334.1,99.333,-2950.16,0,0
38635.7,93.1648,-2848.9,0,0
39937.4,87.936,-2753.25,0,0
41239,85.693,-2663.47,0,0
42540.6,83.3682,-2579.26,0,0
43842.225,82.3631,-2501.98,0,0
45143.85,79.5416,-2428.09,0,0
46445.475,77.3389,-2357.94,0,0
47747.1,76.0249,-2291.68,0,0
49048.725,73.8051,-2229.05,0,0
50350.35,71.9626,-2168.78,0,0
51651.975,71.3272,-2111.4,0,0
52953.6,70.7952,-2057.77,0,0
54255.225,69.2899,-2008.08,0,0
55556.85,66.171,-1959.09,0,0
56858.475,64.078,-1910.2,0,0
58160.1,63.2966,-1863.92,0,0
59461.7,63.1348,-1820.74,0,0
60763.3,61.705,-1778.23,0,0
62065,61.6171,-1737.68,0,0
63366.6,62.2356,-1698.27,0,0
64668.2,63.6492,-1662.82,0,0
65969.8,61.9409,-1629.01,0,0
67271.5,59.9189,-1594.32,0,0
68573.1,59.119,-1560.49,0,0
69874.7,59.2788,-1527.69,0,0
71176.3,59.344,-1496.61,0,0
72478,59.3992,-1467.31,0,0
73779.6,58.7276,-1438.39,0,0
75081.2,58.1094,-1409.87,0,0
76382.825,58.1704,-1382.31,0,0
77684.45,57.8569,-1355.73,0,0
78986.075,57.518,-1329.44,0,0
80287.7,57.6645,-1303.46,0,0
81589.325,58.2601,-1277.84,0,0
82890.95,59.9644,-1253.55,0,0
84192.575,61.8805,-1230.56,0,0
85494.2,62.3554,-1209.69,0,0
86795.825,62.5915,-1186.52,0,0
88097.45,64.2998,-1164.25,0,0
89399.075,66.4724,-1143,0,0
90700.7,69.8593,-1121.99,0,0
92002.3,74.7116,-1104.4,0,0
93303.9,76.8068,-1089.92,0,0
94605.6,75.6943,-1072.2,0,0
95907.2,77.2077,-1055.07,0,0
97208.8,78.9544,-1038.25,0,0
98510.4,81.1429,-1023.24,0,0
99812.1,80.7886,-1009.23,0,0
101114,80.5442,-994.954,0,0
102415,79.6168,-979.664,0,0
103717,78.744,-964.003,0,0
105019,79.4965,-948.659,0,0
106320.175,80.1106,-933.721,0,0
107621.8,80.611,-919.946,0,0
108923.425,80.2802,-905.48,0,0
110225.05,81.2057,-891.367,0,0
111526.675,81.3738,-877.861,0,0
112828.3,81.8046,-864.393,0,0
114129.925,82.0197,-851.814,0,0
115431.55,81.5833,-838.689,0,0
116733.175,80.7309,-825.322,0,0
118034.8,81.1401,-811.442,0,0
119336.425,81.651,-798.406,0,0
120638.05,81.509,-785.209,0,0
121939.675,81.5594,-772.132,0,0
123241,81.8038,-758.838,0,0
124543,82.3482,-745.001,0,0
125845,83.7323,-731.81,0,0
127146,85.0591,-719.493,0,0
128448,85.4967,-707.197,0,0
129749,85.8372,-694.171,0,0
131051,86.6315,-680.681,0,0
132353,87.4963,-667.495,0,0
133654,88.5,-653.744,0,0
134956,90.4563,-639.665,0,0
136258,93.414,-626.776,0,0
137559,94.0721,-614.779,0,0
138860.775,94.2449,-599.889,0,0
140162.4,96.0803,-583.944,0,0
141464.025,99.2325,-567.847,0,0
142765.65,102.759,-551.321,0,0
144067.275,107.894,-533.357,0,0
145368.9,116.305,-515.122,0,0
146670.525,126.302,-499.574,0,0
147972.15,135.892,-485.258,0,0
149273.775,147.461,-467.339,0,0
150575.4,165.768,-452.243,0,0
151877.025,188.148,-446.658,0,0
153178.65,199.932,-448.176,0,0
154480,207.966,-445.261,0,0
155782,220.17,-439.58,0,0
157084,222.907,-444.557,0,0
158385,224.881,-432.671,0,0
159687,237.234,-427.191,0,0
160988,238.461,-422.949,0,0
162290,249.525,-411.389,0,0
163592,262.424,-410.591,0,0
164893,268.33,-412.709,0,0
166195,265.683,-416.591,0,0
167497,255.636,-407.849,0,0
168798,251.038,-389.299,0,0
170100,254.295,-367.277,0,0
171401.375,262.375,-345.197,0,0
172703.0,278.85,-321.036,0,0
174004.625,299.773,-306.276,0,0
175306.25,314.451,-293.447,0,0
176607.875,333.727,-271.272,0,0
177909.5,361.389,-254.338,0,0
179211.125,396.126,-242.444,0,0
180512.75,428.315,-238.508,0,0
181814.375,461.645,-234.304,0,0
183116.0,497.056,-239.37,0,0
184417.625,523.425,-242.87,0,0
185719.25,558.564,-240.605,0,0
187021,602.287,-251.16,0,0
188322,643.301,-267.489,0,0
189624,676.304,-293.61,0,0
190926,710.033,-309.321,0,0
192227,756.259,-338.988,0,0
193529,800.326,-372.447,0,0
194831,851.823,-434.614,0,0
196132,883.797,-518.802,0,0
197434,879.552,-615.19,0,0
198735,847.043,-698.598,0,0
200037,792.897,-770.58,0,0
201339,728.473,-809.252,0,0
202640.35,658.546,-832.95,0,0
203941.975,604.285,-827.168,0,0
205243.6,562.97,-822.125,0,0
206545.225,522.174,-806.53,0,0
207846.85,501.954,-784.254,0,0
209148.475,489.838,-769.816,0,0
210450.1,483.151,-755.826,0,0
211751.725,485.432,-748.625,0,0
213053.35,486.327,-754.093,0,0
214354.975,478.248,-760.447,0,0
215656.6,466.41,-763.46,0,0
216958.225,458.584,-758.833,0,0
218259.85,458.307,-758.201,0,0
219561,460.536,-761.927,0,0
220863,463.057,-774.173,0,0
222165,460.772,-791.408,0,0
223466,449.084,-813.357,0,0
224768,431.39,-831.622,0,0
226070,406.1,-848.634,0,0
227371,375.161,-856.881,0,0
228673,346.121,-853.978,0,0
229974,323.492,-851.97,0,0
231276,297.161,-848.145,0,0
232578,272.241,-838.308,0,0
233879,249.674,-825.205,0,0
235180.95,231.337,-807.387,0,0
236482.575,219.363,-789.419,0,0
237784.2,211.478,-772.954,0,0
239085.825,207.007,-759.232,0,0
240387.45,202.237,-750.119,0,0
241689.075,194.594,-740.958,0,0
242990.7,186.876,-729.75,0,0
244292.325,181.265,-717.376,0,0
245593.95,176.841,-705.208,0,0
246895.575,174.918,-693.274,0,0
248197.2,172.672,-683.725,0,0
249498.825,169.139,-672.273,0,0
250800,168.69,-657.99,0,0
252102,174.384,-645.431,0,0
253404,180.529,-639.324,0,0
254705,183.283,-634.329,0,0
256007,186.059,-628.123,0,0
257309,190.376,-622.418,0,0
258610,195.668,-618.135,0,0
259912,201.65,-615.831,0,0
261213,205.883,-615.687,0,0
262515,209.53,-616.609,0,0
263817,211.109,-616.826,0,0
265118,213.674,-614.231,0,0
266420,221.216,-611.846,0,0
267721.55,234.011,-615.447,0,0
269023.175,244.638,-630.157,0,0
270324.8,245.45,-649.66,0,0
271626.425,238.269,-669.389,0,0
272928.05,222.923,-686.427,0,0
274229.675,199.754,-696.444,0,0
275531.3,176.252,-695.19,0,0
276832.925,158.235,-688.424,0,0
278134.55,143.282,-679.529,0,0
279436.175,131.301,-667.641,0,0
280737.8,125.278,-654.881,0,0
282039.425,123.041,-644.855,0,0
283341,121.573,-638.415,0,0
284643,118.838,-632.381,0,0
285944,118.498,-625.551,0,0
287246,120.684,-623.15,0,0
288548,118.603,-625.506,0,0
289849,112.219,-625.716,0,0
291151,105.167,-624.002,0,0
292452,97.0552,-620.762,0,0
293754,89.2606,-615.148,0,0
295056,82.7233,-607.787,0,0
296357,78.3346,-600.113,0,0
297659,74.468,-592.886,0,0
298960.525,71.2436,-585.284,0,0
300262.15,69.0974,-577.379,0,0
301563.775,68.5656,-569.723,0,0
302865.4,68.9438,-563.408,0,0
304167.025,69.2719,-558.097,0,0
305468.65,69.8727,-553.378,0,0
306770.275,70.3558,-549.649,0,0
308071.9,70.718,-546.366,0,0
309373.525,70.3307,-544.117,0,0
310675.15,68.956,-541.535,0,0
311976.775,67.3309,-538.692,0,0
313278.4,65.4999,-535.489,0,0
314580,63.6282,-531.919,0,0
315882,61.9996,-527.962,0,0
317183,61.0027,-523.905,0,0
318485,60.3269,-520.247,0,0
319787,59.8213,-516.842,0,0
321088,59.1792,-514.212,0,0
322390,58.0691,-511.715,0,0
323691,56.5974,-509.421,0,0
324993,54.3413,-506.828,0,0
326295,52.1068,-503.41,0,0
327596,50.0707,-499.644,0,0
328898,48.3086,-495.721,0,0
330200,46.6555,-491.562,0,0
331501.125,45.2984,-487.315,0,0
332802.75,44.3226,-482.907,0,0
334104.375,43.8536,-478.434,0,0
335406.0,43.827,-474.404,0,0
336707.625,43.9644,-470.902,0,0
338009.25,43.8008,-467.78,0,0
339310.875,43.4109,-464.74,0,0
340612.5,42.8272,-461.666,0,0
341914.125,42.107,-458.533,0,0
343215.75,41.3886,-455.151,0,0
344517.375,40.7287,-451.556,0,0
345819.0,40.3249,-447.782,0,0
347121,40.2337,-444.022,0,0
348422,40.4038,-440.498,0,0
349724,40.6951,-437.112,0,0
351025,41.0599,-433.909,0,0
352327,41.4777,-430.885,0,0
353629,41.9489,-428.057,0,0
354930,42.2942,-425.432,0,0
356232,42.5211,-422.908,0,0
357534,42.4863,-420.459,0,0
358835,42.372,-417.695,0,0
360137,42.3882,-414.937,0,0
361438,42.4296,-412.024,0,0
362740.1,42.6197,-409.006,0,0
364041.725,43.0591,-406.006,0,0
365343.35,43.8481,-403.058,0,0
366644.975,44.7196,-400.623,0,0
367946.6,45.4286,-398.278,0,0
369248.225,46.2382,-395.769,0,0
370549.85,47.5317,-393.573,0,0
371851.475,48.6873,-392.105,0,0
373153.1,49.4157,-391.135,0,0
374454.725,49.4026,-390.083,0,0
375756.35,49.2188,-388.521,0,0
377057.975,49.3767,-386.727,0,0
378359.6,49.3758,-385.603,0,0
379661,48.5438,-383.909,0,0
380963,48.8152,-381.627,0,0
382264,49.2471,-380.808,0,0
383566,48.0993,-380.029,0,0
384868,46.5192,-378.213,0,0
386169,45.2265,-375.682,0,0
387471,44.3956,-372.713,0,0
388773,44.1291,-369.632,0,0
390074,44.2818,-366.819,0,0
391376,44.5033,-364.388,0,0
392677,44.5237,-362.067,0,0
393979,44.4634,-359.614,0,0
395280.7,44.5526,-357.008,0,0
396582.325,44.8327,-354.578,0,0
397883.95,45.0396,-352.274,0,0
399185.575,45.139,-349.865,0,0
400006.6,45.2151,-348.275,0,0