Folder: ML_Dmg_Mehdi_Dataset/Accelerated corrosion test data/2025-10-14_06-00-04 (part 4)

File: sample_8.csv
Frequency (Hz),Impedance (ohms),Phase (Radians),Temperature (C),Humidity (%)
10000.0,312.941,-10958.3,0,0
11301.625,276.67,-9711.73,0,0
12603.25,254.387,-8721.53,0,0
13904.875,226.148,-7920.93,0,0
15206.5,206.249,-7248.46,0,0
16508.125,189.463,-6682.89,0,0
17809.75,176.822,-6196.82,0,0
19111.375,168.349,-5775.17,0,0
20413.0,161.029,-5413.64,0,0
21714.625,150.315,-5093.74,0,0
23016.25,144.395,-4811.61,0,0
24317.875,133.063,-4554.81,0,0
25619.5,126.088,-4322.47,0,0
26921.1,121.021,-4111.59,0,0
28222.7,117.601,-3921.65,0,0
29524.4,113.935,-3749.4,0,0
30826,109.71,-3592.15,0,0
32127.6,105.745,-3444.43,0,0
33429.2,105.285,-3307.7,0,0
34730.9,106.177,-3183.26,0,0
36032.5,108.919,-3071.82,0,0
37334.1,106.234,-2971.98,0,0
38635.7,96.727,-2875.93,0,0
39937.4,88.479,-2779.65,0,0
41239,85.8501,-2689.24,0,0
42540.6,82.6074,-2604.49,0,0
43842.225,81.8712,-2526.9,0,0
45143.85,77.8754,-2452.34,0,0
46445.475,75.1522,-2381.4,0,0
47747.1,73.2522,-2314.03,0,0
49048.725,71.2282,-2250.91,0,0
50350.35,69.368,-2189.92,0,0
51651.975,68.1709,-2131.88,0,0
52953.6,67.6533,-2077.32,0,0
54255.225,66.7775,-2027.37,0,0
55556.85,63.6624,-1978,0,0
56858.475,61.4696,-1929.23,0,0
58160.1,60.4761,-1882.67,0,0
59461.7,59.8864,-1838.79,0,0
60763.3,58.4983,-1796.2,0,0
62065,58.0797,-1755.32,0,0
63366.6,58.2647,-1715.63,0,0
64668.2,59.0982,-1679.15,0,0
65969.8,58.2296,-1644.48,0,0
67271.5,56.1206,-1610.05,0,0
68573.1,55.2917,-1576.1,0,0
69874.7,54.8827,-1542.91,0,0
71176.3,54.9436,-1511.44,0,0
72478,55.0767,-1481.65,0,0
73779.6,54.4263,-1452.64,0,0
75081.2,53.4783,-1424.24,0,0
76382.825,53.2121,-1396.23,0,0
77684.45,52.8988,-1369.52,0,0
78986.075,52.2348,-1343.23,0,0
80287.7,51.7971,-1317.21,0,0
81589.325,51.8224,-1291.4,0,0
82890.95,52.7057,-1266.5,0,0
84192.575,53.9572,-1242.64,0,0
85494.2,55.0329,-1220.91,0,0
86795.825,54.3628,-1197.94,0,0
88097.45,55.0905,-1175.47,0,0
89399.075,55.8804,-1153.18,0,0
90700.7,57.6767,-1130.62,0,0
92002.3,61.9215,-1109.43,0,0
93303.9,65.8379,-1091.52,0,0
94605.6,65.7047,-1073.94,0,0
95907.2,67.4622,-1054.07,0,0
97208.8,71.1463,-1034.85,0,0
98510.4,76.0822,-1017.5,0,0
99812.1,80.9924,-1003.15,0,0
101114,84.8948,-990.098,0,0
102415,86.8037,-978.762,0,0
103717,85.9757,-967.159,0,0
105019,85.1737,-953.729,0,0
106320.175,84.3835,-939.266,0,0
107621.8,84.7023,-925.496,0,0
108923.425,84.1741,-911.316,0,0
110225.05,85.3381,-897.203,0,0
111526.675,86.0364,-884.42,0,0
112828.3,86.6528,-872.141,0,0
114129.925,86.5702,-860.419,0,0
115431.55,86.0368,-848.295,0,0
116733.175,84.2939,-836.078,0,0
118034.8,83.8088,-822.596,0,0
119336.425,83.2272,-810.132,0,0
120638.05,81.8151,-797.221,0,0
121939.675,81.0218,-783.669,0,0
123241,80.6265,-770.228,0,0
124543,80.1494,-756.323,0,0
125845,80.3731,-742.502,0,0
127146,81.1979,-728.452,0,0
128448,82.1872,-715.034,0,0
129749,83.253,-701.802,0,0
131051,84.4216,-688.24,0,0
132353,85.84,-675.446,0,0
133654,86.7447,-662.497,0,0
134956,87.8949,-648.489,0,0
136258,90.9724,-635.166,0,0
137559,91.5934,-623.963,0,0
138860.775,90.6186,-609.009,0,0
140162.4,92.4673,-592.856,0,0
141464.025,95.119,-576.92,0,0
142765.65,98.0485,-560.179,0,0
144067.275,102.529,-542.585,0,0
145368.9,108.968,-524.067,0,0
146670.525,118.31,-506.431,0,0
147972.15,128.372,-490.79,0,0
149273.775,139.678,-471.922,0,0
150575.4,157.975,-454.686,0,0
151877.025,183.214,-446.256,0,0
153178.65,200.181,-449.329,0,0
154480,207.695,-451.359,0,0
155782,217.982,-444.428,0,0
157084,225.022,-453.444,0,0
158385,220.285,-444.62,0,0
159687,231.982,-435.228,0,0
160988,232.46,-434.695,0,0
162290,237.648,-419.93,0,0
163592,251.759,-414.022,0,0
164893,261.524,-413.617,0,0
166195,264.391,-419.96,0,0
167497,254.099,-415.343,0,0
168798,250.127,-401.523,0,0
170100,250.697,-383.815,0,0
171401.375,252.83,-366.371,0,0
172703.0,262.171,-341.856,0,0
174004.625,278.513,-325.194,0,0
175306.25,286.315,-313.336,0,0
176607.875,295.778,-286.586,0,0
177909.5,316.093,-260.466,0,0
179211.125,345.305,-234.502,0,0
180512.75,385.885,-213.605,0,0
181814.375,431.538,-206.195,0,0
183116.0,474.612,-213.127,0,0
184417.625,503.775,-223.73,0,0
185719.25,532.703,-225.598,0,0
187021,567.019,-230.622,0,0
188322,602.097,-235.806,0,0
189624,640.315,-250.797,0,0
190926,673.649,-257.798,0,0
192227,722.033,-277.181,0,0
193529,767.949,-289.882,0,0
194831,842.36,-326.923,0,0
196132,907.044,-400.342,0,0
197434,943.512,-505.67,0,0
198735,932.312,-610.347,0,0
200037,904.005,-704.648,0,0
201339,843.212,-778.893,0,0
202640.35,769.789,-836.181,0,0
203941.975,693.06,-846.722,0,0
205243.6,637.779,-847.026,0,0
206545.225,583.691,-833.49,0,0
207846.85,561.773,-803.784,0,0
209148.475,554.676,-796.282,0,0
210450.1,545.543,-790.071,0,0
211751.725,542.655,-789.754,0,0
213053.35,541.176,-799.09,0,0
214354.975,532.94,-813.743,0,0
215656.6,519.6,-830.06,0,0
216958.225,499.021,-844.889,0,0
218259.85,474.958,-855.189,0,0
219561,449.455,-859.889,0,0
220863,423.427,-860.644,0,0
222165,400.14,-852.7,0,0
223466,385.457,-843.818,0,0
224768,377.164,-837.912,0,0
226070,370.689,-840.96,0,0
227371,356.224,-848.275,0,0
228673,336.121,-850.996,0,0
229974,317.216,-851.596,0,0
231276,294.535,-851.096,0,0
232578,271.238,-845.351,0,0
233879,248.233,-835.707,0,0
235180.95,226.899,-820.412,0,0
236482.575,211.972,-801.528,0,0
237784.2,202.169,-783.313,0,0
239085.825,196.867,-765.742,0,0
240387.45,195.782,-753.478,0,0
241689.075,192.025,-746.031,0,0
242990.7,184.218,-737.451,0,0
244292.325,177.694,-725.219,0,0
245593.95,174.168,-713.768,0,0
246895.575,171.427,-702.741,0,0
248197.2,168.921,-693.557,0,0
249498.825,165.379,-682.989,0,0
250800,164.09,-670.618,0,0
252102,167.139,-658.772,0,0
253404,172.176,-652.547,0,0
254705,172.555,-649,0,0
256007,171.177,-643.257,0,0
257309,170.101,-635.412,0,0
258610,171.575,-626.051,0,0
259912,176.127,-617.645,0,0
261213,181.759,-612.234,0,0
262515,187.536,-608.776,0,0
263817,191.143,-606.242,0,0
265118,194.34,-600.974,0,0
266420,202.895,-593.491,0,0
267721.55,219.684,-590.367,0,0
269023.175,239.783,-599.561,0,0
270324.8,253.021,-620.164,0,0
271626.425,254.688,-648.278,0,0
272928.05,241.536,-674.666,0,0
274229.675,216.388,-692.437,0,0
275531.3,188.004,-694.87,0,0
276832.925,166.551,-687.56,0,0
278134.55,151.274,-677.733,0,0
279436.175,139.549,-666.672,0,0
280737.8,133.187,-654.42,0,0
282039.425,130.811,-645.069,0,0
283341,129.279,-639.383,0,0
284643,125.873,-634.247,0,0
285944,124.289,-627.196,0,0
287246,127.273,-623.604,0,0
288548,127.683,-627.784,0,0
289849,119.851,-631.662,0,0
291151,109.33,-629.973,0,0
292452,100.271,-625.442,0,0
293754,92.2652,-619.121,0,0
295056,85.4623,-611.685,0,0
296357,80.4767,-603.397,0,0
297659,76.6548,-595.557,0,0
298960.525,73.5969,-587.454,0,0
300262.15,71.6843,-579.209,0,0
301563.775,71.3447,-571.165,0,0
302865.4,72.3482,-564.408,0,0
304167.025,73.7504,-559.115,0,0
305468.65,75.0372,-554.907,0,0
306770.275,76.1442,-551.746,0,0
308071.9,76.8323,-549.333,0,0
309373.525,76.5841,-548.305,0,0
310675.15,74.567,-546.527,0,0
311976.775,72.599,-544.009,0,0
313278.4,70.4919,-541.537,0,0
314580,67.8376,-538.561,0,0
315882,65.3429,-534.889,0,0
317183,63.4965,-530.595,0,0
318485,62.2565,-526.647,0,0
319787,61.5939,-522.938,0,0
321088,60.9821,-520.25,0,0
322390,59.5037,-517.958,0,0
323691,57.5696,-515.438,0,0
324993,54.9627,-512.584,0,0
326295,52.3327,-508.918,0,0
327596,50.1715,-504.739,0,0
328898,48.4748,-500.49,0,0
330200,46.9659,-496.154,0,0
331501.125,45.728,-491.879,0,0
332802.75,44.6606,-487.441,0,0
334104.375,44.0442,-482.999,0,0
335406.0,43.9198,-478.945,0,0
336707.625,43.8286,-475.255,0,0
338009.25,43.6612,-471.933,0,0
339310.875,43.1945,-468.73,0,0
340612.5,42.6228,-465.672,0,0
341914.125,41.6642,-462.311,0,0
343215.75,40.8555,-458.6,0,0
344517.375,40.242,-454.724,0,0
345819.0,39.8669,-450.763,0,0
347121,39.8158,-446.76,0,0
348422,40.1785,-442.936,0,0
349724,40.7482,-439.286,0,0
351025,41.4122,-435.856,0,0
352327,42.2683,-432.802,0,0
353629,43.0228,-430.099,0,0
354930,43.5753,-427.596,0,0
356232,44.0606,-425.085,0,0
357534,44.3164,-422.723,0,0
358835,44.534,-420.24,0,0
360137,44.8364,-417.758,0,0
361438,45.1014,-415.359,0,0
362740.1,45.3083,-412.877,0,0
364041.725,45.6108,-410.459,0,0
365343.35,45.9621,-408.026,0,0
366644.975,46.4023,-405.725,0,0
367946.6,46.695,-403.479,0,0
369248.225,47.1129,-401.058,0,0
370549.85,48.098,-398.76,0,0
371851.475,49.0309,-397.325,0,0
373153.1,49.347,-396.229,0,0
374454.725,49.1387,-395.007,0,0
375756.35,48.6235,-393.241,0,0
377057.975,48.6163,-391.183,0,0
378359.6,48.7729,-389.748,0,0
379661,48.0583,-388.208,0,0
380963,47.9244,-385.819,0,0
382264,48.3567,-384.528,0,0
383566,47.5241,-383.669,0,0
384868,46.1257,-382.036,0,0
386169,44.7484,-379.668,0,0
387471,43.6615,-376.824,0,0
388773,43.0559,-373.766,0,0
390074,42.9675,-370.767,0,0
391376,43.0589,-368.112,0,0
392677,42.9589,-365.602,0,0
393979,42.7821,-362.998,0,0
395280.7,42.7387,-360.167,0,0
396582.325,42.962,-357.304,0,0
397883.95,43.3392,-354.684,0,0
399185.575,43.6768,-352.193,0,0
400006.6,43.8925,-350.614,0,0