Folder: ML_Dmg_Mehdi_Dataset/Accelerated corrosion test data/2025-10-05_18-00-02 (part 4)

File: sample_8.csv
Frequency (Hz),Impedance (ohms),Phase (Radians),Temperature (C),Humidity (%)
10000.0,311.902,-10919.7,0,0
11301.625,276.655,-9677.45,0,0
12603.25,254.307,-8690.95,0,0
13904.875,225.865,-7892.83,0,0
15206.5,205.923,-7222.2,0,0
16508.125,189.999,-6658.64,0,0
17809.75,176.533,-6175.28,0,0
19111.375,167.96,-5754.87,0,0
20413.0,160.386,-5393.81,0,0
21714.625,151.043,-5074.58,0,0
23016.25,144.882,-4793.13,0,0
24317.875,134.588,-4537.59,0,0
25619.5,127.691,-4306,0,0
26921.1,122.144,-4096.17,0,0
28222.7,118.46,-3906.11,0,0
29524.4,116.788,-3733.97,0,0
30826,114.451,-3577.42,0,0
32127.6,112.363,-3432.18,0,0
33429.2,113.573,-3297.87,0,0
34730.9,111.741,-3180.35,0,0
36032.5,106.537,-3070.93,0,0
37334.1,99.3248,-2964.88,0,0
38635.7,92.3991,-2864.45,0,0
39937.4,86.8957,-2768.29,0,0
41239,84.7394,-2677.95,0,0
42540.6,82.3756,-2593.45,0,0
43842.225,81.6421,-2515.69,0,0
45143.85,78.4337,-2441.55,0,0
46445.475,75.9399,-2370.97,0,0
47747.1,74.5298,-2304.01,0,0
49048.725,72.496,-2241.34,0,0
50350.35,70.6704,-2180.69,0,0
51651.975,69.8992,-2122.78,0,0
52953.6,69.5058,-2068.66,0,0
54255.225,68.0145,-2018.79,0,0
55556.85,65.0333,-1969.5,0,0
56858.475,63.0222,-1920.6,0,0
58160.1,62.2069,-1874.13,0,0
59461.7,62.0916,-1830.69,0,0
60763.3,60.5455,-1787.91,0,0
62065,60.3595,-1747.11,0,0
63366.6,61.0094,-1707.41,0,0
64668.2,62.3117,-1671.6,0,0
65969.8,61.1583,-1637.45,0,0
67271.5,59.2556,-1603.19,0,0
68573.1,58.1855,-1568.92,0,0
69874.7,58.1474,-1535.82,0,0
71176.3,58.438,-1504.59,0,0
72478,58.7727,-1475.03,0,0
73779.6,57.5861,-1446.07,0,0
75081.2,57.202,-1417.49,0,0
76382.825,57.3905,-1389.7,0,0
77684.45,57.1528,-1363.13,0,0
78986.075,56.7009,-1336.75,0,0
80287.7,56.8552,-1310.67,0,0
81589.325,57.2855,-1285.18,0,0
82890.95,58.8746,-1260.51,0,0
84192.575,60.7738,-1237.29,0,0
85494.2,61.4805,-1216.34,0,0
86795.825,61.4034,-1193.19,0,0
88097.45,63.2016,-1170.82,0,0
89399.075,65.3082,-1149.41,0,0
90700.7,68.4451,-1128.27,0,0
92002.3,73.4059,-1110.13,0,0
93303.9,74.9935,-1095.61,0,0
94605.6,74.8553,-1077.76,0,0
95907.2,76.2027,-1060.27,0,0
97208.8,77.9716,-1043.2,0,0
98510.4,80.3691,-1028.22,0,0
99812.1,80.3703,-1013.91,0,0
101114,80.7646,-999.599,0,0
102415,79.6859,-985.162,0,0
103717,78.9855,-969.129,0,0
105019,78.7708,-954.063,0,0
106320.175,79.7955,-938.37,0,0
107621.8,81.0348,-924.724,0,0
108923.425,80.6138,-910.678,0,0
110225.05,81.4925,-896.894,0,0
111526.675,81.3726,-883.854,0,0
112828.3,81.4321,-870.532,0,0
114129.925,81.1294,-857.459,0,0
115431.55,80.8138,-844.174,0,0
116733.175,80.105,-830.919,0,0
118034.8,79.789,-816.853,0,0
119336.425,80.3226,-803.715,0,0
120638.05,80.0501,-790.422,0,0
121939.675,80.0975,-776.722,0,0
123241,80.3798,-763.65,0,0
124543,80.6706,-749.346,0,0
125845,82.3498,-735.828,0,0
127146,83.6886,-723.133,0,0
128448,84.5802,-710.834,0,0
129749,84.7801,-698.068,0,0
131051,86.0624,-683.996,0,0
132353,87.0373,-671.731,0,0
133654,88.2845,-657.62,0,0
134956,90.0578,-643.842,0,0
136258,93.594,-630.856,0,0
137559,94.364,-620.129,0,0
138860.775,93.6575,-605.533,0,0
140162.4,95.1772,-590.213,0,0
141464.025,97.0675,-574.144,0,0
142765.65,100.042,-557.306,0,0
144067.275,104.392,-539.793,0,0
145368.9,111.134,-520.45,0,0
146670.525,121.644,-503.939,0,0
147972.15,131.339,-490.31,0,0
149273.775,140.298,-472.181,0,0
150575.4,156.474,-453.903,0,0
151877.025,180.782,-444.838,0,0
153178.65,194.637,-446.426,0,0
154480,202.496,-442.772,0,0
155782,214.867,-435.691,0,0
157084,222.268,-441.866,0,0
158385,220.599,-429.336,0,0
159687,236.096,-419.882,0,0
160988,239.023,-418.459,0,0
162290,248.994,-404.787,0,0
163592,266.65,-401.914,0,0
164893,275.318,-406.892,0,0
166195,276.722,-413.608,0,0
167497,266.624,-410.191,0,0
168798,259.45,-395.472,0,0
170100,259.951,-374.816,0,0
171401.375,264.574,-352.498,0,0
172703.0,278.085,-327.47,0,0
174004.625,297.413,-308.632,0,0
175306.25,316.47,-294.903,0,0
176607.875,335.06,-276.367,0,0
177909.5,360.351,-259.668,0,0
179211.125,393.334,-243.489,0,0
180512.75,429.872,-238.892,0,0
181814.375,461.002,-239.316,0,0
183116.0,494.406,-240.798,0,0
184417.625,520.303,-244.17,0,0
185719.25,553.117,-242.743,0,0
187021,595.167,-246.599,0,0
188322,638.072,-256.926,0,0
189624,682.26,-284.142,0,0
190926,712.586,-306.871,0,0
192227,757.725,-329.626,0,0
193529,804.816,-361.102,0,0
194831,866.646,-421.853,0,0
196132,900.187,-509.813,0,0
197434,903.18,-613.79,0,0
198735,867.275,-707.068,0,0
200037,812.707,-780.345,0,0
201339,739.39,-826.092,0,0
202640.35,671.533,-849.252,0,0
203941.975,607.264,-847.606,0,0
205243.6,560.446,-835.507,0,0
206545.225,521.147,-817.781,0,0
207846.85,500.331,-792.708,0,0
209148.475,489.739,-776.848,0,0
210450.1,485.052,-763.164,0,0
211751.725,486.205,-757.366,0,0
213053.35,488.084,-760.587,0,0
214354.975,483.499,-770.146,0,0
215656.6,470.324,-778.716,0,0
216958.225,454.984,-777.596,0,0
218259.85,450.384,-772.35,0,0
219561,450.932,-775.641,0,0
220863,448.723,-784.705,0,0
222165,444.571,-797.129,0,0
223466,432.628,-813.207,0,0
224768,418.322,-825.417,0,0
226070,398.838,-840.2,0,0
227371,372.545,-848.324,0,0
228673,345.219,-847.823,0,0
229974,325.541,-845.264,0,0
231276,301.339,-844.282,0,0
232578,277.432,-836.562,0,0
233879,255.94,-825.094,0,0
235180.95,237.082,-810.301,0,0
236482.575,223.58,-793.298,0,0
237784.2,215.028,-777.632,0,0
239085.825,208.956,-763.447,0,0
240387.45,206.078,-754.473,0,0
241689.075,198.31,-748.11,0,0
242990.7,187.885,-739.086,0,0
244292.325,178.96,-726.135,0,0
245593.95,173.176,-712.289,0,0
246895.575,170.699,-698.366,0,0
248197.2,168.904,-688.282,0,0
249498.825,165.243,-676.543,0,0
250800,164.693,-662.331,0,0
252102,168.482,-648.785,0,0
253404,176.013,-640.794,0,0
254705,179.194,-636.76,0,0
256007,180.766,-630.375,0,0
257309,184.216,-623.668,0,0
258610,189.405,-617.567,0,0
259912,196.36,-614.062,0,0
261213,201.661,-613.645,0,0
262515,205.894,-613.913,0,0
263817,208.019,-614.213,0,0
265118,209.852,-612.823,0,0
266420,215.595,-609.253,0,0
267721.55,227.348,-609.784,0,0
269023.175,239.859,-619.64,0,0
270324.8,246.108,-637.473,0,0
271626.425,243.564,-659.071,0,0
272928.05,230.542,-679.033,0,0
274229.675,208.795,-691.829,0,0
275531.3,184.769,-693.827,0,0
276832.925,165.266,-688.314,0,0
278134.55,149.992,-679.826,0,0
279436.175,137.799,-669.335,0,0
280737.8,130.289,-657.186,0,0
282039.425,127.085,-647.239,0,0
283341,125.085,-640.118,0,0
284643,122.665,-633.666,0,0
285944,122.188,-626.963,0,0
287246,125.01,-624.283,0,0
288548,123.686,-627.881,0,0
289849,116.357,-629.475,0,0
291151,108.135,-627.085,0,0
292452,100.417,-623.97,0,0
293754,92.2936,-618.559,0,0
295056,85.5614,-611.695,0,0
296357,80.1102,-604.027,0,0
297659,76.0941,-596.195,0,0
298960.525,72.9413,-588.421,0,0
300262.15,70.6781,-580.651,0,0
301563.775,69.6738,-572.825,0,0
302865.4,70.0414,-566.076,0,0
304167.025,70.6526,-560.631,0,0
305468.65,71.2186,-555.825,0,0
306770.275,72.008,-551.913,0,0
308071.9,72.5099,-548.772,0,0
309373.525,72.4522,-546.798,0,0
310675.15,70.8892,-544.568,0,0
311976.775,69.2884,-541.802,0,0
313278.4,67.4351,-539.055,0,0
314580,64.9396,-535.934,0,0
315882,62.8085,-531.931,0,0
317183,61.3745,-527.59,0,0
318485,60.5611,-523.471,0,0
319787,60.1085,-519.864,0,0
321088,59.5823,-517.127,0,0
322390,58.3742,-514.713,0,0
323691,56.8418,-512.204,0,0
324993,54.7515,-509.509,0,0
326295,52.3959,-506.123,0,0
327596,50.3087,-502.254,0,0
328898,48.6277,-498.284,0,0
330200,47.0812,-494.14,0,0
331501.125,45.6831,-489.9,0,0
332802.75,44.6675,-485.526,0,0
334104.375,44.0309,-481.128,0,0
335406.0,43.922,-476.998,0,0
336707.625,43.9708,-473.371,0,0
338009.25,43.918,-470.095,0,0
339310.875,43.6212,-467.088,0,0
340612.5,42.9865,-464.073,0,0
341914.125,42.2134,-460.881,0,0
343215.75,41.4676,-457.438,0,0
344517.375,40.8462,-453.832,0,0
345819.0,40.4275,-450.093,0,0
347121,40.2871,-446.353,0,0
348422,40.3869,-442.737,0,0
349724,40.6427,-439.278,0,0
351025,41.0928,-435.984,0,0
352327,41.5316,-433.051,0,0
353629,41.8829,-430.126,0,0
354930,42.3208,-427.35,0,0
356232,42.6967,-424.886,0,0
357534,42.7497,-422.575,0,0
358835,42.6003,-419.986,0,0
360137,42.4831,-417.191,0,0
361438,42.4195,-414.298,0,0
362740.1,42.4902,-411.34,0,0
364041.725,42.8212,-408.334,0,0
365343.35,43.4398,-405.391,0,0
366644.975,44.2608,-402.777,0,0
367946.6,44.8742,-400.453,0,0
369248.225,45.5017,-397.801,0,0
370549.85,46.6222,-395.299,0,0
371851.475,47.9124,-393.594,0,0
373153.1,48.6936,-392.389,0,0
374454.725,48.8879,-391.19,0,0
375756.35,48.8473,-389.539,0,0
377057.975,49.1105,-387.775,0,0
378359.6,49.2509,-386.504,0,0
379661,48.6858,-384.901,0,0
380963,49.0038,-382.586,0,0
382264,49.6383,-381.925,0,0
383566,48.556,-381.315,0,0
384868,46.9726,-379.627,0,0
386169,45.625,-377.178,0,0
387471,44.733,-374.341,0,0
388773,44.3042,-371.267,0,0
390074,44.3947,-368.455,0,0
391376,44.4701,-365.963,0,0
392677,44.427,-363.521,0,0
393979,44.4678,-360.977,0,0
395280.7,44.5125,-358.42,0,0
396582.325,44.7789,-355.81,0,0
397883.95,45.1369,-353.445,0,0
399185.575,45.3094,-351.176,0,0
400006.6,45.3371,-349.662,0,0