Folder: ML_Dmg_Mehdi_Dataset/Accelerated corrosion test data/2025-10-02_06-00-03 (part 4)

File: sample_8.csv
Frequency (Hz),Impedance (ohms),Phase (Radians),Temperature (C),Humidity (%)
10000.0,315.569,-10945.8,0,0
11301.625,279.696,-9700.71,0,0
12603.25,256.749,-8711.55,0,0
13904.875,228.55,-7911.89,0,0
15206.5,207.94,-7240.23,0,0
16508.125,191.971,-6674.93,0,0
17809.75,178.153,-6189.92,0,0
19111.375,169.252,-5768.92,0,0
20413.0,161.493,-5407.29,0,0
21714.625,152.424,-5087.16,0,0
23016.25,145.988,-4805.22,0,0
24317.875,135.673,-4548.88,0,0
25619.5,128.495,-4317.35,0,0
26921.1,122.995,-4106.67,0,0
28222.7,120.07,-3916.27,0,0
29524.4,117.17,-3743.77,0,0
30826,115.038,-3586.69,0,0
32127.6,112.177,-3441.31,0,0
33429.2,112.926,-3305.84,0,0
34730.9,111.497,-3186.75,0,0
36032.5,107.781,-3076.81,0,0
37334.1,100.956,-2971.79,0,0
38635.7,93.8046,-2871.61,0,0
39937.4,88.2118,-2775.46,0,0
41239,85.745,-2684.85,0,0
42540.6,82.9355,-2600.26,0,0
43842.225,82.7898,-2521.97,0,0
45143.85,79.3051,-2448.22,0,0
46445.475,76.471,-2377.26,0,0
47747.1,75.3206,-2310.08,0,0
49048.725,73.2783,-2247.13,0,0
50350.35,71.3182,-2186.27,0,0
51651.975,70.3158,-2128.38,0,0
52953.6,69.8639,-2074.16,0,0
54255.225,68.8505,-2024.16,0,0
55556.85,65.6616,-1974.86,0,0
56858.475,63.4674,-1925.87,0,0
58160.1,62.5693,-1879.09,0,0
59461.7,62.6234,-1835.28,0,0
60763.3,61.0257,-1792.9,0,0
62065,60.928,-1751.8,0,0
63366.6,61.1073,-1712.04,0,0
64668.2,62.5916,-1675.53,0,0
65969.8,61.8891,-1641.67,0,0
67271.5,59.4521,-1607.35,0,0
68573.1,58.5446,-1573.21,0,0
69874.7,58.1739,-1539.97,0,0
71176.3,58.709,-1508.49,0,0
72478,59.1734,-1478.83,0,0
73779.6,58.1372,-1449.89,0,0
75081.2,57.68,-1421.51,0,0
76382.825,57.6431,-1393.39,0,0
77684.45,57.5809,-1366.71,0,0
78986.075,57.1662,-1340.59,0,0
80287.7,57.1521,-1314.57,0,0
81589.325,57.5696,-1289.24,0,0
82890.95,58.5103,-1264.13,0,0
84192.575,60.4223,-1240.29,0,0
85494.2,62.1344,-1218.74,0,0
86795.825,61.8701,-1196.78,0,0
88097.45,63.1161,-1174.26,0,0
89399.075,65.3139,-1152.69,0,0
90700.7,68.0708,-1131.69,0,0
92002.3,72.6614,-1112.29,0,0
93303.9,75.9752,-1097.24,0,0
94605.6,74.8216,-1080.9,0,0
95907.2,76.3391,-1062.98,0,0
97208.8,77.5888,-1045.74,0,0
98510.4,79.9293,-1030.2,0,0
99812.1,80.6408,-1016.21,0,0
101114,81.2933,-1001.4,0,0
102415,80.5922,-987.04,0,0
103717,80.0181,-972.033,0,0
105019,79.1821,-956.896,0,0
106320.175,79.278,-940.867,0,0
107621.8,80.6374,-926.375,0,0
108923.425,80.9926,-911.944,0,0
110225.05,82.1985,-898.312,0,0
111526.675,82.3419,-885.459,0,0
112828.3,82.5338,-872.229,0,0
114129.925,82.4603,-859.336,0,0
115431.55,82.0275,-846.253,0,0
116733.175,81.7168,-833.337,0,0
118034.8,80.8499,-819.98,0,0
119336.425,81.1164,-806.229,0,0
120638.05,80.6674,-793.163,0,0
121939.675,80.6089,-779.506,0,0
123241,81.1223,-766.011,0,0
124543,81.0569,-752.427,0,0
125845,82.1184,-738.834,0,0
127146,83.2052,-725.433,0,0
128448,84.4897,-712.733,0,0
129749,85.0376,-700.303,0,0
131051,84.6569,-686.634,0,0
132353,87.3106,-672.209,0,0
133654,88.8073,-658.577,0,0
134956,91.0721,-645.441,0,0
136258,93.9711,-631.945,0,0
137559,96.89,-620.854,0,0
138860.775,95.7318,-608.825,0,0
140162.4,96.7709,-593.433,0,0
141464.025,98.0744,-578.379,0,0
142765.65,100.382,-561.665,0,0
144067.275,103.673,-544.511,0,0
145368.9,109.109,-524.943,0,0
146670.525,119.35,-506.846,0,0
147972.15,130.64,-492.203,0,0
149273.775,136.907,-477.106,0,0
150575.4,151.168,-456.785,0,0
151877.025,173.809,-441.482,0,0
153178.65,194.96,-443.141,0,0
154480,202.865,-444.505,0,0
155782,209.747,-435.657,0,0
157084,223.563,-438.185,0,0
158385,217.396,-430.853,0,0
159687,231.536,-412.507,0,0
160988,243.979,-416.482,0,0
162290,247.084,-404.651,0,0
163592,264.561,-396.535,0,0
164893,277.322,-401.321,0,0
166195,284.313,-404.972,0,0
167497,276.928,-410.903,0,0
168798,266.194,-399.703,0,0
170100,262.957,-378.989,0,0
171401.375,266.81,-356.727,0,0
172703.0,276.351,-331.427,0,0
174004.625,296.198,-308.783,0,0
175306.25,319.447,-293.935,0,0
176607.875,336.713,-279.281,0,0
177909.5,362.982,-261.171,0,0
179211.125,393.726,-247.593,0,0
180512.75,428.187,-240.829,0,0
181814.375,462.607,-240.416,0,0
183116.0,493.492,-243.048,0,0
184417.625,520.47,-247.836,0,0
185719.25,547.703,-247.939,0,0
187021,586.895,-243.619,0,0
188322,630.219,-250.365,0,0
189624,681.789,-270.018,0,0
190926,720.693,-297.094,0,0
192227,768.502,-322.223,0,0
193529,810.345,-366.545,0,0
194831,869.445,-413.89,0,0
196132,909.054,-507.715,0,0
197434,917.649,-614.35,0,0
198735,876.359,-713.626,0,0
200037,818.313,-784.643,0,0
201339,745.041,-829.36,0,0
202640.35,681.849,-851.863,0,0
203941.975,615.124,-858.427,0,0
205243.6,560.296,-843.932,0,0
206545.225,523.381,-824.077,0,0
207846.85,499.895,-797.863,0,0
209148.475,492.329,-780.67,0,0
210450.1,487.251,-768.085,0,0
211751.725,487.976,-763.006,0,0
213053.35,489.871,-765.047,0,0
214354.975,486.004,-777.205,0,0
215656.6,470.576,-787.059,0,0
216958.225,452.897,-786.495,0,0
218259.85,444.748,-778.712,0,0
219561,445.506,-778.748,0,0
220863,445.145,-785.739,0,0
222165,441.546,-799.108,0,0
223466,430.209,-815.463,0,0
224768,412.408,-827.293,0,0
226070,394.049,-836.837,0,0
227371,370.343,-844.877,0,0
228673,345.75,-845.758,0,0
229974,324.394,-842.745,0,0
231276,303.459,-839.767,0,0
232578,281.997,-834.052,0,0
233879,260.639,-825.022,0,0
235180.95,241.45,-811.824,0,0
236482.575,226.826,-795.85,0,0
237784.2,217.225,-779.858,0,0
239085.825,211.234,-766.162,0,0
240387.45,207.646,-756.101,0,0
241689.075,201.314,-750.036,0,0
242990.7,191.206,-742.181,0,0
244292.325,182.099,-730.435,0,0
245593.95,174.919,-718.568,0,0
246895.575,168.778,-704.609,0,0
248197.2,166.421,-690.579,0,0
249498.825,164.976,-678.236,0,0
250800,165.087,-665.432,0,0
252102,167.771,-652.945,0,0
253404,173.839,-644.334,0,0
254705,176.126,-639.381,0,0
256007,177.846,-631.37,0,0
257309,182.55,-624.036,0,0
258610,187.714,-618.151,0,0
259912,194.367,-614.355,0,0
261213,200.107,-612.962,0,0
262515,205.63,-613.43,0,0
263817,207.963,-614.66,0,0
265118,209.503,-614.151,0,0
266420,213.753,-610.698,0,0
267721.55,223.562,-610.19,0,0
269023.175,235.529,-616.912,0,0
270324.8,243.722,-632.593,0,0
271626.425,244.668,-652.334,0,0
272928.05,235.081,-674.002,0,0
274229.675,214.247,-689.51,0,0
275531.3,190.186,-693.798,0,0
276832.925,168.987,-688.368,0,0
278134.55,154.535,-680.16,0,0
279436.175,142.826,-671.184,0,0
280737.8,133.866,-660.7,0,0
282039.425,129.18,-651.068,0,0
283341,125.552,-642.66,0,0
284643,123.723,-634.976,0,0
285944,123.841,-628.996,0,0
287246,125.653,-625.948,0,0
288548,125.299,-628.798,0,0
289849,118.44,-631.092,0,0
291151,109.736,-629.462,0,0
292452,102.045,-626.049,0,0
293754,93.5042,-621.377,0,0
295056,86.0136,-614.135,0,0
296357,80.5702,-606.29,0,0
297659,76.1576,-598.227,0,0
298960.525,72.952,-590.059,0,0
300262.15,70.9495,-582.034,0,0
301563.775,69.8234,-574.385,0,0
302865.4,69.9637,-567.083,0,0
304167.025,71.0458,-561.236,0,0
305468.65,71.9804,-556.713,0,0
306770.275,72.6653,-552.73,0,0
308071.9,73.3758,-549.711,0,0
309373.525,73.4405,-547.592,0,0
310675.15,72.0605,-545.77,0,0
311976.775,70.2229,-543.086,0,0
313278.4,68.3627,-540.266,0,0
314580,66.1225,-537.295,0,0
315882,63.5851,-533.344,0,0
317183,61.9389,-528.906,0,0
318485,61.082,-524.603,0,0
319787,60.7568,-520.889,0,0
321088,60.4121,-517.926,0,0
322390,59.5115,-515.697,0,0
323691,57.9234,-513.22,0,0
324993,56.0326,-510.647,0,0
326295,53.6712,-507.562,0,0
327596,51.5635,-503.814,0,0
328898,49.6309,-499.881,0,0
330200,47.9975,-495.779,0,0
331501.125,46.6515,-491.566,0,0
332802.75,45.4739,-487.32,0,0
334104.375,44.6653,-482.932,0,0
335406.0,44.2871,-478.626,0,0
336707.625,44.2883,-474.795,0,0
338009.25,44.2638,-471.464,0,0
339310.875,43.9714,-468.268,0,0
340612.5,43.5937,-465.157,0,0
341914.125,42.9353,-462.072,0,0
343215.75,42.1667,-458.827,0,0
344517.375,41.457,-455.228,0,0
345819.0,41.0322,-451.439,0,0
347121,40.7774,-447.732,0,0
348422,40.8254,-444.02,0,0
349724,41.1362,-440.527,0,0
351025,41.5826,-437.256,0,0
352327,42.1294,-434.178,0,0
353629,42.4757,-431.365,0,0
354930,42.8992,-428.588,0,0
356232,43.2542,-426.055,0,0
357534,43.386,-423.739,0,0
358835,43.2903,-421.311,0,0
360137,43.0176,-418.69,0,0
361438,42.9034,-415.805,0,0
362740.1,42.8765,-412.828,0,0
364041.725,43.0522,-409.714,0,0
365343.35,43.5436,-406.724,0,0
366644.975,44.3303,-403.825,0,0
367946.6,45.1349,-401.338,0,0
369248.225,45.7957,-398.808,0,0
370549.85,46.8066,-396.324,0,0
371851.475,48.1053,-394.4,0,0
373153.1,48.9442,-393.024,0,0
374454.725,49.3438,-391.648,0,0
375756.35,49.5687,-390.082,0,0
377057.975,49.8335,-388.578,0,0
378359.6,50.0253,-387.24,0,0
379661,49.5643,-385.673,0,0
380963,49.8984,-383.383,0,0
382264,50.8578,-382.78,0,0
383566,49.6366,-382.623,0,0
384868,47.8709,-380.886,0,0
386169,46.5033,-378.429,0,0
387471,45.5217,-375.618,0,0
388773,45.01,-372.648,0,0
390074,44.9323,-369.746,0,0
391376,45.0392,-367.214,0,0
392677,44.9506,-364.761,0,0
393979,44.8461,-362.154,0,0
395280.7,44.9279,-359.402,0,0
396582.325,45.2718,-356.724,0,0
397883.95,45.7575,-354.271,0,0
399185.575,46.1482,-352.014,0,0
400006.6,46.2729,-350.645,0,0