Folder: ML_Dmg_Mehdi_Dataset/Accelerated corrosion test data/2025-10-14_06-00-04 (part 3)

File: sample_6.csv
Frequency (Hz),Impedance (ohms),Phase (Radians),Temperature (C),Humidity (%)
10000.0,4139.03,-6677.24,0,0
11301.625,3512.55,-6268.62,0,0
12603.25,3016.08,-5882,0,0
13904.875,2616.4,-5532.19,0,0
15206.5,2290.83,-5208.84,0,0
16508.125,2022.46,-4913.9,0,0
17809.75,1800.14,-4645.71,0,0
19111.375,1613.59,-4401.18,0,0
20413.0,1454.67,-4179.86,0,0
21714.625,1319.04,-3976.21,0,0
23016.25,1204.07,-3787.53,0,0
24317.875,1103.11,-3620.25,0,0
25619.5,1013.71,-3463.27,0,0
26921.1,936.1,-3318.01,0,0
28222.7,868.442,-3185.26,0,0
29524.4,806.472,-3057.78,0,0
30826,755.168,-2942.14,0,0
32127.6,708.572,-2833.63,0,0
33429.2,669.042,-2736.46,0,0
34730.9,627.029,-2644.38,0,0
36032.5,588.881,-2558.29,0,0
37334.1,556.345,-2471.88,0,0
38635.7,527.087,-2391.31,0,0
39937.4,505.331,-2315.31,0,0
41239,484.501,-2249.65,0,0
42540.6,459.82,-2187.34,0,0
43842.225,439.587,-2121.6,0,0
45143.85,424.806,-2062.22,0,0
46445.475,411.722,-2009.07,0,0
47747.1,398.34,-1958.76,0,0
49048.725,386.478,-1915.11,0,0
50350.35,366.518,-1876.03,0,0
51651.975,346.944,-1829.91,0,0
52953.6,331.527,-1784.34,0,0
54255.225,316.871,-1740.71,0,0
55556.85,305.842,-1699.86,0,0
56858.475,294.525,-1657.76,0,0
58160.1,289.041,-1621.25,0,0
59461.7,279.364,-1589.3,0,0
60763.3,267.88,-1556.3,0,0
62065,254.983,-1521.49,0,0
63366.6,251.188,-1484.75,0,0
64668.2,244.866,-1458.92,0,0
65969.8,236.404,-1428.01,0,0
67271.5,229.889,-1400.21,0,0
68573.1,222.503,-1373.1,0,0
69874.7,215.035,-1346.48,0,0
71176.3,207.888,-1319.86,0,0
72478,201.53,-1293.2,0,0
73779.6,196.056,-1267.53,0,0
75081.2,191.209,-1243.19,0,0
76382.825,186.006,-1219.68,0,0
77684.45,180.908,-1196.28,0,0
78986.075,176.159,-1173.12,0,0
80287.7,171.734,-1150.32,0,0
81589.325,167.786,-1127.47,0,0
82890.95,164.746,-1105,0,0
84192.575,162.368,-1082.82,0,0
85494.2,161.624,-1061.18,0,0
86795.825,161.577,-1041.29,0,0
88097.45,161.484,-1022.51,0,0
89399.075,162.402,-1004.45,0,0
90700.7,163.417,-990.059,0,0
92002.3,160.159,-976.452,0,0
93303.9,156.988,-959.392,0,0
94605.6,156.199,-941.66,0,0
95907.2,156.924,-926.051,0,0
97208.8,156.814,-913.228,0,0
98510.4,154.67,-898.718,0,0
99812.1,155.353,-884.383,0,0
101114,155.637,-873.396,0,0
102415,153.395,-862.134,0,0
103717,150.769,-852.038,0,0
105019,144.124,-842.129,0,0
106320.175,134.547,-826.399,0,0
107621.8,130.367,-805.414,0,0
108923.425,132.012,-786.439,0,0
110225.05,134.441,-769.421,0,0
111526.675,139.544,-754.378,0,0
112828.3,144.576,-745.055,0,0
114129.925,145.453,-736.338,0,0
115431.55,146.609,-726.31,0,0
116733.175,146.618,-721.184,0,0
118034.8,138.515,-711.705,0,0
119336.425,134.306,-696.05,0,0
120638.05,135.616,-679.695,0,0
121939.675,138.576,-670.202,0,0
123241,136.862,-659.384,0,0
124543,136.631,-648.132,0,0
125845,135.339,-636.798,0,0
127146,133.897,-624.39,0,0
128448,133.799,-610.513,0,0
129749,135.575,-597.467,0,0
131051,137.034,-585.256,0,0
132353,139.043,-572.656,0,0
133654,142.218,-560.76,0,0
134956,145.303,-549.695,0,0
136258,148.386,-538.946,0,0
137559,152.502,-529.022,0,0
138860.775,155.408,-521.093,0,0
140162.4,156.821,-512.231,0,0
141464.025,158.695,-503.039,0,0
142765.65,159.186,-494.794,0,0
144067.275,158.967,-483.948,0,0
145368.9,160.895,-472.117,0,0
146670.525,163.365,-462.251,0,0
147972.15,163.626,-452.755,0,0
149273.775,163.169,-440.125,0,0
150575.4,165.019,-425.695,0,0
151877.025,168.355,-410.772,0,0
153178.65,175.487,-396.797,0,0
154480,181.348,-385.932,0,0
155782,187.012,-373.006,0,0
157084,195.41,-362.244,0,0
158385,200.727,-353.503,0,0
159687,205.451,-343.064,0,0
160988,209.923,-331.848,0,0
162290,214.658,-319.814,0,0
163592,219.994,-306.817,0,0
164893,225.134,-293.739,0,0
166195,230.769,-278.482,0,0
167497,237.636,-262.205,0,0
168798,246.129,-244.554,0,0
170100,256.223,-226.54,0,0
171401.375,267.35,-207.452,0,0
172703.0,280.334,-186.586,0,0
174004.625,296.061,-163.983,0,0
175306.25,315.723,-139.673,0,0
176607.875,340.655,-114.865,0,0
177909.5,371.317,-90.9926,0,0
179211.125,407.802,-69.7586,0,0
180512.75,448.582,-53.6735,0,0
181814.375,490.625,-40.4361,0,0
183116.0,536.632,-29.7289,0,0
184417.625,584.781,-21.0734,0,0
185719.25,639.33,-12.0568,0,0
187021,705.922,-6.73136,0,0
188322,784.169,-12.8771,0,0
189624,872.186,-35.4024,0,0
190926,965.469,-81.5874,0,0
192227,1052.75,-155.455,0,0
193529,1125.14,-252.51,0,0
194831,1177.05,-370.538,0,0
196132,1198.91,-503.271,0,0
197434,1184.45,-639.196,0,0
198735,1136.06,-762.612,0,0
200037,1064.92,-864.321,0,0
201339,978.527,-942.968,0,0
202640.35,884.736,-995.205,0,0
203941.975,794.388,-1023.35,0,0
205243.6,711.747,-1034.67,0,0
206545.225,638.014,-1034.39,0,0
207846.85,572.99,-1025.78,0,0
209148.475,516.403,-1011.71,0,0
210450.1,467.218,-994.472,0,0
211751.725,423.454,-974.793,0,0
213053.35,385.742,-952.639,0,0
214354.975,353.025,-930.134,0,0
215656.6,324.849,-906.657,0,0
216958.225,301.133,-883.182,0,0
218259.85,280.697,-860.497,0,0
219561,263.056,-838.126,0,0
220863,248.161,-815.983,0,0
222165,235.634,-794.349,0,0
223466,225.602,-773.019,0,0
224768,218.14,-752.242,0,0
226070,213.177,-732.799,0,0
227371,209.772,-715.273,0,0
228673,206.977,-698.798,0,0
229974,204.825,-682.518,0,0
231276,204.495,-666.482,0,0
232578,205.723,-650.963,0,0
233879,208.866,-636.128,0,0
235180.95,213.919,-622.534,0,0
236482.575,220.958,-610.679,0,0
237784.2,229.439,-600.911,0,0
239085.825,239.186,-593.611,0,0
240387.45,249.664,-589.031,0,0
241689.075,260.138,-587.445,0,0
242990.7,270.122,-588.362,0,0
244292.325,280.075,-592.144,0,0
245593.95,287.748,-600.432,0,0
246895.575,290.52,-609.945,0,0
248197.2,290.776,-618.363,0,0
249498.825,289.326,-625.315,0,0
250800,289.294,-632.511,0,0
252102,287.958,-642.542,0,0
253404,283.457,-654.149,0,0
254705,274.239,-665.803,0,0
256007,261.324,-674.62,0,0
257309,246.561,-679.459,0,0
258610,232.002,-681.092,0,0
259912,217.941,-680.487,0,0
261213,205.136,-677.945,0,0
262515,193.104,-674.01,0,0
263817,182.273,-669.046,0,0
265118,172.642,-663.45,0,0
266420,164.018,-657.719,0,0
267721.55,156.088,-651.757,0,0
269023.175,148.836,-645.703,0,0
270324.8,142.066,-639.523,0,0
271626.425,135.886,-633.332,0,0
272928.05,130.086,-627.05,0,0
274229.675,124.913,-620.731,0,0
275531.3,120.01,-614.358,0,0
276832.925,115.498,-608.071,0,0
278134.55,111.295,-601.606,0,0
279436.175,107.558,-594.927,0,0
280737.8,104.892,-588.253,0,0
282039.425,102.818,-582.483,0,0
283341,100.445,-577.22,0,0
284643,98.2059,-571.702,0,0
285944,96.5406,-566.687,0,0
287246,94.9016,-562.477,0,0
288548,92.6223,-558.348,0,0
289849,90.277,-553.895,0,0
291151,88.0939,-549.453,0,0
292452,86.101,-545.236,0,0
293754,83.7937,-541.162,0,0
295056,81.2373,-536.897,0,0
296357,78.8016,-531.993,0,0
297659,77.0757,-526.866,0,0
298960.525,76.1077,-522.126,0,0
300262.15,75.0244,-518.106,0,0
301563.775,73.507,-514.147,0,0
302865.4,71.9947,-510.062,0,0
304167.025,70.8378,-505.841,0,0
305468.65,69.8314,-501.904,0,0
306770.275,68.8067,-498.146,0,0
308071.9,67.6002,-494.516,0,0
309373.525,66.4637,-490.768,0,0
310675.15,65.4194,-487.08,0,0
311976.775,64.3609,-483.469,0,0
313278.4,63.3331,-479.857,0,0
314580,62.265,-476.302,0,0
315882,61.3301,-472.717,0,0
317183,60.4218,-469.225,0,0
318485,59.4933,-465.689,0,0
319787,58.692,-462.179,0,0
321088,57.9466,-458.731,0,0
322390,57.195,-455.336,0,0
323691,56.5179,-452.046,0,0
324993,55.8216,-448.769,0,0
326295,55.1202,-445.507,0,0
327596,54.3646,-442.199,0,0
328898,53.6887,-438.922,0,0
330200,53.1746,-435.523,0,0
331501.125,52.6943,-432.292,0,0
332802.75,52.308,-429.091,0,0
334104.375,51.8877,-425.925,0,0
335406.0,51.5204,-422.841,0,0
336707.625,51.2096,-419.78,0,0
338009.25,50.889,-416.744,0,0
339310.875,50.5605,-413.636,0,0
340612.5,50.3225,-410.627,0,0
341914.125,50.1559,-407.587,0,0
343215.75,50.1493,-404.632,0,0
344517.375,50.1419,-401.941,0,0
345819.0,49.922,-399.172,0,0
347121,49.8269,-396.298,0,0
348422,49.8687,-393.499,0,0
349724,50.0175,-390.833,0,0
351025,50.1284,-388.29,0,0
352327,50.2988,-385.798,0,0
353629,50.4053,-383.473,0,0
354930,50.4135,-381.272,0,0
356232,50.2788,-379.059,0,0
357534,50.1008,-376.813,0,0
358835,49.8691,-374.534,0,0
360137,49.6547,-372.218,0,0
361438,49.4004,-369.821,0,0
362740.1,49.1393,-367.463,0,0
364041.725,48.9735,-365.006,0,0
365343.35,48.8049,-362.563,0,0
366644.975,48.7923,-360.156,0,0
367946.6,48.7523,-357.788,0,0
369248.225,48.6926,-355.487,0,0
370549.85,48.6429,-353.094,0,0
371851.475,48.731,-350.801,0,0
373153.1,48.8302,-348.603,0,0
374454.725,48.854,-346.655,0,0
375756.35,48.4944,-344.604,0,0
377057.975,48.1654,-342.386,0,0
378359.6,47.8459,-340.009,0,0
379661,47.6026,-337.55,0,0
380963,47.336,-335.034,0,0
382264,47.3491,-332.369,0,0
383566,47.6414,-329.973,0,0
384868,47.547,-327.841,0,0
386169,47.4189,-325.453,0,0
387471,47.3356,-322.99,0,0
388773,47.2703,-320.512,0,0
390074,47.3237,-317.99,0,0
391376,47.2951,-315.433,0,0
392677,47.3543,-312.885,0,0
393979,47.448,-310.293,0,0
395280.7,47.6059,-307.675,0,0
396582.325,47.7628,-305.022,0,0
397883.95,47.945,-302.343,0,0
399185.575,48.2124,-299.639,0,0
400006.6,48.379,-297.936,0,0

File: sample_7.csv
Frequency (Hz),Impedance (ohms),Phase (Radians),Temperature (C),Humidity (%)
10000.0,273.637,-12094.1,0,0
11301.625,247.323,-10699.7,0,0
12603.25,257.691,-9647.16,0,0
13904.875,209.942,-8753.98,0,0
15206.5,195.44,-8016.74,0,0
16508.125,171.955,-7375.17,0,0
17809.75,170.497,-6820.18,0,0
19111.375,179.901,-6376.87,0,0
20413.0,169.363,-5984.72,0,0
21714.625,156.664,-5643.46,0,0
23016.25,130.533,-5319.58,0,0
24317.875,122.94,-5026.57,0,0
25619.5,118.768,-4762.49,0,0
26921.1,122.475,-4517.95,0,0
28222.7,178.205,-4305.85,0,0
29524.4,139.931,-4175.55,0,0
30826,132.09,-3990.61,0,0
32127.6,117.912,-3843.04,0,0
33429.2,101.643,-3692.1,0,0
34730.9,92.6934,-3547.45,0,0
36032.5,88.6876,-3413.59,0,0
37334.1,86.412,-3289.46,0,0
38635.7,87.0177,-3172.48,0,0
39937.4,98.741,-3073.04,0,0
41239,87.036,-2985.88,0,0
42540.6,79.9152,-2889.49,0,0
43842.225,78.9513,-2800.61,0,0
45143.85,80.6805,-2723.06,0,0
46445.475,77.0832,-2650.62,0,0
47747.1,70.6424,-2574.07,0,0
49048.725,68.0234,-2503.86,0,0
50350.35,66.1584,-2436.65,0,0
51651.975,64.466,-2373.1,0,0
52953.6,63.6319,-2312.52,0,0
54255.225,62.2731,-2255.83,0,0
55556.85,60.9444,-2200.96,0,0
56858.475,60.1721,-2148.67,0,0
58160.1,59.2596,-2098.08,0,0
59461.7,59.5731,-2050.64,0,0
60763.3,59.0895,-2006.86,0,0
62065,56.854,-1963.43,0,0
63366.6,55.651,-1920.68,0,0
64668.2,55.0556,-1879.97,0,0
65969.8,55.1127,-1841.55,0,0
67271.5,53.2745,-1804.79,0,0
68573.1,52.1327,-1768,0,0
69874.7,51.471,-1732.67,0,0
71176.3,51.3399,-1698.96,0,0
72478,50.307,-1666.71,0,0
73779.6,49.4796,-1634.92,0,0
75081.2,48.9048,-1604.1,0,0
76382.825,48.3884,-1574.4,0,0
77684.45,48.1596,-1545.54,0,0
78986.075,47.7573,-1517.5,0,0
80287.7,47.6337,-1490.45,0,0
81589.325,47.2385,-1464.22,0,0
82890.95,46.9718,-1438.55,0,0
84192.575,47.0201,-1413.37,0,0
85494.2,47.2133,-1389.32,0,0
86795.825,47.3121,-1365.87,0,0
88097.45,47.4497,-1343.28,0,0
89399.075,46.9065,-1320.96,0,0
90700.7,47.1958,-1298.69,0,0
92002.3,47.5774,-1276.99,0,0
93303.9,48.1536,-1255.93,0,0
94605.6,50.0369,-1235.95,0,0
95907.2,49.9931,-1218.09,0,0
97208.8,49.4707,-1198.66,0,0
98510.4,50.1997,-1179.25,0,0
99812.1,49.8799,-1160.49,0,0
101114,51.4269,-1141.49,0,0
102415,53.0357,-1123.41,0,0
103717,55.8075,-1106.72,0,0
105019,56.7336,-1091.71,0,0
106320.175,56.1191,-1075.5,0,0
107621.8,57.2345,-1059.17,0,0
108923.425,58.2922,-1042.86,0,0
110225.05,58.8058,-1026.22,0,0
111526.675,61.97,-1009.36,0,0
112828.3,66.5097,-993.147,0,0
114129.925,71.8143,-979.287,0,0
115431.55,77.8713,-966.883,0,0
116733.175,85.7982,-958.241,0,0
118034.8,89.3464,-953.169,0,0
119336.425,91.9155,-950.719,0,0
120638.05,84.9864,-950.455,0,0
121939.675,74.5367,-939.874,0,0
123241,67.1357,-926.992,0,0
124543,62.7507,-912.067,0,0
125845,58.875,-898.25,0,0
127146,55.5428,-883.431,0,0
128448,53.8556,-868.65,0,0
129749,52.29,-854.129,0,0
131051,51.1677,-839.658,0,0
132353,50.3713,-824.332,0,0
133654,50.8194,-808.767,0,0
134956,53.4538,-793.978,0,0
136258,58.1579,-780.938,0,0
137559,58.7352,-773.225,0,0
138860.775,56.4693,-761.026,0,0
140162.4,56.5167,-747.103,0,0
141464.025,56.5067,-733.712,0,0
142765.65,57.5968,-719.216,0,0
144067.275,60.283,-705.794,0,0
145368.9,61.9041,-693.503,0,0
146670.525,62.9637,-680.239,0,0
147972.15,64.7037,-666.841,0,0
149273.775,65.4201,-653.863,0,0
150575.4,65.8777,-638.18,0,0
151877.025,68.0202,-620.849,0,0
153178.65,72.4514,-602.857,0,0
154480,78.5686,-584.655,0,0
155782,87.1299,-566.577,0,0
157084,98.2718,-549.397,0,0
158385,111.738,-535.552,0,0
159687,121.735,-526.199,0,0
160988,125.933,-512.13,0,0
162290,134.526,-488.178,0,0
163592,152.826,-462.678,0,0
164893,179.762,-442.018,0,0
166195,210.092,-420.488,0,0
167497,258.156,-403.663,0,0
168798,318.941,-407.049,0,0
170100,375.732,-440.228,0,0
171401.375,413.36,-495.933,0,0
172703.0,426.146,-562.819,0,0
174004.625,394.208,-626.161,0,0
175306.25,345.243,-641.72,0,0
176607.875,321.881,-629.987,0,0
177909.5,329.975,-627.946,0,0
179211.125,331.555,-664.819,0,0
180512.75,298.629,-686.414,0,0
181814.375,260.421,-700.308,0,0
183116.0,217.031,-691.091,0,0
184417.625,187.332,-669.443,0,0
185719.25,167.86,-647.023,0,0
187021,152.764,-619.638,0,0
188322,148.899,-594.174,0,0
189624,143.777,-576.346,0,0
190926,137.793,-554.065,0,0
192227,136.731,-530.182,0,0
193529,138.743,-505.373,0,0
194831,144.538,-481.05,0,0
196132,155.495,-459.416,0,0
197434,167.52,-441.441,0,0
198735,176.399,-424.84,0,0
200037,185.866,-404.409,0,0
201339,200.435,-381.456,0,0
202640.35,221.309,-356.542,0,0
203941.975,249.593,-334.994,0,0
205243.6,285.171,-316.15,0,0
206545.225,331.059,-310.823,0,0
207846.85,367.006,-317.966,0,0
209148.475,403.692,-314.428,0,0
210450.1,463.258,-327.075,0,0
211751.725,508.153,-375.182,0,0
213053.35,529.411,-426.79,0,0
214354.975,534.043,-472.996,0,0
215656.6,528.393,-513.721,0,0
216958.225,524.997,-553.073,0,0
218259.85,500.961,-591.443,0,0
219561,465.526,-617.323,0,0
220863,430.372,-617.624,0,0
222165,411.29,-606.637,0,0
223466,406.115,-598.621,0,0
224768,402.625,-595.462,0,0
226070,406.401,-587.686,0,0
227371,418.17,-591.894,0,0
228673,430.741,-604.804,0,0
229974,436.348,-627.097,0,0
231276,433.619,-657.411,0,0
232578,420.507,-686.503,0,0
233879,391.841,-716.537,0,0
235180.95,347.534,-727.859,0,0
236482.575,313.009,-715.85,0,0
237784.2,289.442,-706.554,0,0
239085.825,264.706,-688.476,0,0
240387.45,260.27,-667.551,0,0
241689.075,254.066,-662.083,0,0
242990.7,239.833,-651.596,0,0
244292.325,231.66,-632.407,0,0
245593.95,235.311,-618.049,0,0
246895.575,235.587,-610.476,0,0
248197.2,234.097,-600.493,0,0
249498.825,235.482,-589.459,0,0
250800,240.971,-578.354,0,0
252102,251.021,-570.222,0,0
253404,265.314,-569.721,0,0
254705,274.534,-579.358,0,0
256007,274.056,-590.522,0,0
257309,267.403,-597.033,0,0
258610,260.591,-597.326,0,0
259912,255.931,-597.542,0,0
261213,249.635,-593.894,0,0
262515,248.662,-586.217,0,0
263817,255.878,-583.227,0,0
265118,259.878,-589.295,0,0
266420,258.088,-593.317,0,0
267721.55,257.407,-597.751,0,0
269023.175,252.894,-601.031,0,0
270324.8,252.224,-599.852,0,0
271626.425,259.058,-603.069,0,0
272928.05,266.457,-623.894,0,0
274229.675,250.977,-651.972,0,0
275531.3,217.268,-667.904,0,0
276832.925,180.588,-661.351,0,0
278134.55,154.276,-640.417,0,0
279436.175,142.322,-616.701,0,0
280737.8,138.976,-596.136,0,0
282039.425,138.732,-582.971,0,0
283341,135.459,-569.68,0,0
284643,136.446,-553.695,0,0
285944,142.143,-541.216,0,0
287246,148.313,-533.62,0,0
288548,150.843,-527.45,0,0
289849,153.708,-518.92,0,0
291151,159.499,-509.748,0,0
292452,166.882,-503.325,0,0
293754,174.927,-497.995,0,0
295056,183.618,-493.531,0,0
296357,194.168,-490.344,0,0
297659,207.019,-489.535,0,0
298960.525,220.409,-493.191,0,0
300262.15,233.854,-500.009,0,0
301563.775,248.34,-511.932,0,0
302865.4,260.518,-535.459,0,0
304167.025,255.582,-564.83,0,0
305468.65,239.878,-585.582,0,0
306770.275,219.657,-598.594,0,0
308071.9,198.86,-603.847,0,0
309373.525,179.112,-602.745,0,0
310675.15,163.904,-596.765,0,0
311976.775,152.731,-590.476,0,0
313278.4,142.785,-584.443,0,0
314580,133.61,-576.76,0,0
315882,127.757,-567.846,0,0
317183,124.498,-560.497,0,0
318485,121.769,-554.684,0,0
319787,119.473,-549.406,0,0
321088,117.471,-545.236,0,0
322390,115.151,-541.611,0,0
323691,112.556,-538.365,0,0
324993,109.611,-534.591,0,0
326295,107.816,-531.034,0,0
327596,105.639,-528.687,0,0
328898,102.52,-526.407,0,0
330200,99.143,-523.782,0,0
331501.125,95.4793,-521.233,0,0
332802.75,91.1091,-518.471,0,0
334104.375,86.0651,-514.814,0,0
335406.0,81.2206,-509.956,0,0
336707.625,76.7256,-504.341,0,0
338009.25,73.1273,-497.931,0,0
339310.875,70.2909,-491.337,0,0
340612.5,68.0344,-484.562,0,0
341914.125,66.6316,-477.471,0,0
343215.75,66.2739,-470.641,0,0
344517.375,66.9053,-464.393,0,0
345819.0,67.9926,-459.205,0,0
347121,68.5574,-455.226,0,0
348422,68.084,-451.246,0,0
349724,67.1937,-446.392,0,0
351025,66.6767,-440.811,0,0
352327,67.3453,-434.553,0,0
353629,69.4611,-429.006,0,0
354930,72.0143,-424.791,0,0
356232,74.5235,-422.089,0,0
357534,75.0774,-420.165,0,0
358835,74.2378,-416.948,0,0
360137,73.9248,-412.029,0,0
361438,75.0569,-406.65,0,0
362740.1,77.3305,-401.712,0,0
364041.725,80.0243,-397.479,0,0
365343.35,83.5086,-393.749,0,0
366644.975,87.044,-391.623,0,0
367946.6,89.8629,-389.97,0,0
369248.225,92.4374,-388.86,0,0
370549.85,94.1984,-388.866,0,0
371851.475,93.668,-388.498,0,0
373153.1,92.7455,-385.722,0,0
374454.725,93.4006,-382.145,0,0
375756.35,94.8617,-379.028,0,0
377057.975,96.0341,-376.501,0,0
378359.6,97.027,-373.127,0,0
379661,99.228,-369.551,0,0
380963,101.744,-366.66,0,0
382264,104.209,-363.954,0,0
383566,107.148,-361.259,0,0
384868,110.406,-359.098,0,0
386169,113.209,-357.44,0,0
387471,116.197,-355.504,0,0
388773,119.098,-352.993,0,0
390074,123.782,-350.601,0,0
391376,128.812,-349.934,0,0
392677,133.211,-349.747,0,0
393979,137.266,-349.711,0,0
395280.7,141.906,-348.873,0,0
396582.325,148.521,-348.478,0,0
397883.95,156.958,-350.494,0,0
399185.575,165.822,-356.617,0,0
400006.6,170.18,-363.011,0,0