Folder: ML_Dmg_Mehdi_Dataset/Accelerated corrosion test data/2025-10-07_06-00-03 (part 4)

File: sample_8.csv
Frequency (Hz),Impedance (ohms),Phase (Radians),Temperature (C),Humidity (%)
10000.0,310.858,-10953.9,0,0
11301.625,275.523,-9707.92,0,0
12603.25,253.793,-8718.12,0,0
13904.875,225.39,-7917.8,0,0
15206.5,205.063,-7245.05,0,0
16508.125,189.406,-6679.57,0,0
17809.75,176.666,-6194.19,0,0
19111.375,167.64,-5772.64,0,0
20413.0,159.629,-5410.46,0,0
21714.625,150.46,-5090.57,0,0
23016.25,144.282,-4807.67,0,0
24317.875,133.843,-4551.1,0,0
25619.5,127.806,-4319.3,0,0
26921.1,122.274,-4108.97,0,0
28222.7,118.856,-3918.07,0,0
29524.4,116.444,-3744.95,0,0
30826,114.723,-3587.85,0,0
32127.6,112.455,-3442.76,0,0
33429.2,113.931,-3308.2,0,0
34730.9,112.221,-3190.54,0,0
36032.5,106.606,-3081.08,0,0
37334.1,98.9488,-2974.78,0,0
38635.7,92.1163,-2873.77,0,0
39937.4,86.7155,-2777.04,0,0
41239,84.4144,-2686.63,0,0
42540.6,81.9585,-2601.62,0,0
43842.225,81.3905,-2523.48,0,0
45143.85,78.2932,-2449.35,0,0
46445.475,75.9348,-2378.68,0,0
47747.1,74.4103,-2311.29,0,0
49048.725,72.3246,-2248.66,0,0
50350.35,70.4837,-2187.62,0,0
51651.975,69.6388,-2129.38,0,0
52953.6,69.3709,-2075.19,0,0
54255.225,68.0268,-2025.41,0,0
55556.85,64.9864,-1975.74,0,0
56858.475,62.8876,-1926.77,0,0
58160.1,62.1201,-1880.09,0,0
59461.7,61.9122,-1836.39,0,0
60763.3,60.3825,-1793.56,0,0
62065,60.2887,-1752.64,0,0
63366.6,60.9293,-1712.87,0,0
64668.2,62.2183,-1677.01,0,0
65969.8,61.1392,-1642.54,0,0
67271.5,59.0868,-1608.27,0,0
68573.1,58.0641,-1574.09,0,0
69874.7,57.9131,-1540.9,0,0
71176.3,58.2765,-1509.4,0,0
72478,58.5732,-1479.9,0,0
73779.6,57.4826,-1450.72,0,0
75081.2,57.0577,-1422.16,0,0
76382.825,57.1113,-1394.21,0,0
77684.45,56.9965,-1367.52,0,0
78986.075,56.4893,-1341.02,0,0
80287.7,56.6896,-1314.95,0,0
81589.325,57.1086,-1289.35,0,0
82890.95,58.7136,-1264.68,0,0
84192.575,60.504,-1241.33,0,0
85494.2,61.2782,-1220.3,0,0
86795.825,61.2007,-1197.09,0,0
88097.45,62.8174,-1174.59,0,0
89399.075,64.8579,-1153.03,0,0
90700.7,68.0859,-1131.72,0,0
92002.3,72.9582,-1113.41,0,0
93303.9,74.8464,-1098.76,0,0
94605.6,74.616,-1080.79,0,0
95907.2,76.2314,-1063.25,0,0
97208.8,78.2645,-1046.2,0,0
98510.4,80.7376,-1031.22,0,0
99812.1,80.7392,-1017.18,0,0
101114,81.2015,-1002.82,0,0
102415,80.0704,-988.742,0,0
103717,78.8633,-972.657,0,0
105019,78.6723,-957.336,0,0
106320.175,79.505,-941.228,0,0
107621.8,81.0867,-927.399,0,0
108923.425,80.8515,-913.339,0,0
110225.05,81.763,-899.487,0,0
111526.675,81.7828,-886.251,0,0
112828.3,82.0048,-872.966,0,0
114129.925,81.9186,-860.004,0,0
115431.55,81.6756,-846.721,0,0
116733.175,81.1409,-833.531,0,0
118034.8,81.1188,-819.542,0,0
119336.425,81.7263,-806.66,0,0
120638.05,81.3898,-793.551,0,0
121939.675,81.484,-780.136,0,0
123241,81.787,-767.248,0,0
124543,81.9422,-753.304,0,0
125845,83.1833,-740.092,0,0
127146,84.1928,-727.185,0,0
128448,84.9457,-714.693,0,0
129749,85.3299,-701.85,0,0
131051,86.5663,-688.034,0,0
132353,87.4007,-675.901,0,0
133654,88.2406,-662.006,0,0
134956,89.7211,-647.847,0,0
136258,93.3236,-634.587,0,0
137559,94.2568,-623.801,0,0
138860.775,93.4886,-609.229,0,0
140162.4,95.082,-594,0,0
141464.025,97.0265,-578.083,0,0
142765.65,99.7999,-561.515,0,0
144067.275,103.77,-544.13,0,0
145368.9,110.129,-524.811,0,0
146670.525,120.084,-507.896,0,0
147972.15,129.904,-493.625,0,0
149273.775,138.85,-475.431,0,0
150575.4,155.109,-456.924,0,0
151877.025,179.423,-446.9,0,0
153178.65,195.033,-448.341,0,0
154480,203.161,-446.301,0,0
155782,214.982,-439.228,0,0
157084,223.511,-446.845,0,0
158385,219.11,-435.413,0,0
159687,233.343,-425.199,0,0
160988,236.325,-423.625,0,0
162290,244.43,-409.219,0,0
163592,261.731,-403.774,0,0
164893,272.796,-407.194,0,0
166195,275.691,-414.857,0,0
167497,266.767,-412.514,0,0
168798,259.854,-399.535,0,0
170100,259.041,-380.708,0,0
171401.375,262.102,-358.834,0,0
172703.0,273.779,-332.82,0,0
174004.625,292.76,-313.856,0,0
175306.25,310.568,-299.631,0,0
176607.875,327.871,-279.75,0,0
177909.5,353.221,-261.945,0,0
179211.125,386.856,-244.608,0,0
180512.75,423.615,-239.765,0,0
181814.375,454.846,-240.449,0,0
183116.0,487.307,-241.654,0,0
184417.625,512.244,-246.622,0,0
185719.25,543.139,-242.265,0,0
187021,584.131,-244.183,0,0
188322,626.387,-251.992,0,0
189624,672.458,-275.302,0,0
190926,704.312,-298.025,0,0
192227,749.849,-320.97,0,0
193529,793.299,-347.529,0,0
194831,859.23,-399.391,0,0
196132,902.734,-482.087,0,0
197434,917.225,-589.641,0,0
198735,888.675,-691.23,0,0
200037,835.754,-771.733,0,0
201339,762.117,-825.516,0,0
202640.35,690.862,-855.181,0,0
203941.975,621.027,-856.073,0,0
205243.6,571.681,-843.807,0,0
206545.225,529.91,-827.912,0,0
207846.85,506.471,-801.914,0,0
209148.475,494.143,-785.82,0,0
210450.1,489.516,-771.308,0,0
211751.725,489.397,-767.68,0,0
213053.35,488.038,-771.447,0,0
214354.975,480.828,-779.736,0,0
215656.6,466.471,-786.363,0,0
216958.225,450.482,-784.315,0,0
218259.85,443.973,-777.892,0,0
219561,443.282,-779.151,0,0
220863,440.395,-785.398,0,0
222165,436.873,-793.851,0,0
223466,428.032,-807.856,0,0
224768,415.917,-819.065,0,0
226070,400.085,-833.535,0,0
227371,375.916,-843.768,0,0
228673,349.445,-844.636,0,0
229974,330.318,-843.428,0,0
231276,306.895,-843.864,0,0
232578,282.32,-838.181,0,0
233879,259.797,-827.754,0,0
235180.95,239.729,-813.162,0,0
236482.575,225.426,-796.08,0,0
237784.2,216.325,-779.745,0,0
239085.825,210.305,-765.016,0,0
240387.45,208.211,-755.807,0,0
241689.075,201.201,-750.484,0,0
242990.7,190.299,-742.323,0,0
244292.325,180.62,-730.113,0,0
245593.95,174.033,-716.459,0,0
246895.575,170.616,-702.545,0,0
248197.2,168.171,-691.996,0,0
249498.825,164.111,-679.658,0,0
250800,163.399,-665.323,0,0
252102,166.748,-651.415,0,0
253404,174.028,-642.831,0,0
254705,177.245,-638.431,0,0
256007,178.774,-631.954,0,0
257309,181.839,-624.925,0,0
258610,186.856,-618.128,0,0
259912,193.758,-613.951,0,0
261213,199.439,-612.836,0,0
262515,204.188,-612.845,0,0
263817,206.733,-613.064,0,0
265118,208.616,-611.755,0,0
266420,213.782,-608.045,0,0
267721.55,224.894,-607.347,0,0
269023.175,238.33,-615.088,0,0
270324.8,246.428,-631.815,0,0
271626.425,246.51,-653.208,0,0
272928.05,235.545,-674.524,0,0
274229.675,215.069,-689.492,0,0
275531.3,190.689,-693.887,0,0
276832.925,170.034,-689.144,0,0
278134.55,154.351,-681.016,0,0
279436.175,141.748,-671.109,0,0
280737.8,133.558,-659.411,0,0
282039.425,129.663,-649.345,0,0
283341,127.589,-641.855,0,0
284643,124.985,-635.545,0,0
285944,124.32,-628.607,0,0
287246,127.256,-625.619,0,0
288548,126.779,-629.419,0,0
289849,119.227,-632.038,0,0
291151,110.395,-629.952,0,0
292452,102.309,-626.838,0,0
293754,93.8248,-621.484,0,0
295056,86.6908,-614.606,0,0
296357,80.94,-606.691,0,0
297659,76.7554,-598.674,0,0
298960.525,73.4494,-590.774,0,0
300262.15,71.0618,-582.779,0,0
301563.775,69.9529,-574.721,0,0
302865.4,70.4027,-567.744,0,0
304167.025,71.0612,-562.132,0,0
305468.65,71.7211,-557.139,0,0
306770.275,72.7339,-553.112,0,0
308071.9,73.4653,-549.99,0,0
309373.525,73.5975,-548.189,0,0
310675.15,72.0204,-546.196,0,0
311976.775,70.2604,-543.502,0,0
313278.4,68.3364,-540.727,0,0
314580,65.9886,-537.583,0,0
315882,63.655,-533.622,0,0
317183,62.1554,-529.307,0,0
318485,61.2229,-525.148,0,0
319787,60.7346,-521.44,0,0
321088,60.3179,-518.578,0,0
322390,59.2486,-516.246,0,0
323691,57.7861,-513.727,0,0
324993,55.6601,-511.154,0,0
326295,53.2306,-507.844,0,0
327596,51.1242,-504.04,0,0
328898,49.3793,-500.097,0,0
330200,47.7447,-496.064,0,0
331501.125,46.3371,-491.867,0,0
332802.75,45.201,-487.523,0,0
334104.375,44.3819,-483.033,0,0
335406.0,44.2313,-478.729,0,0
336707.625,44.3321,-475.019,0,0
338009.25,44.357,-471.764,0,0
339310.875,44.0526,-468.717,0,0
340612.5,43.4614,-465.695,0,0
341914.125,42.6733,-462.588,0,0
343215.75,41.8501,-459.113,0,0
344517.375,41.1664,-455.478,0,0
345819.0,40.7968,-451.716,0,0
347121,40.5612,-448.031,0,0
348422,40.681,-444.324,0,0
349724,40.9603,-440.827,0,0
351025,41.3335,-437.543,0,0
352327,41.8353,-434.553,0,0
353629,42.2015,-431.627,0,0
354930,42.5825,-428.916,0,0
356232,43.0189,-426.404,0,0
357534,43.071,-424.051,0,0
358835,42.8533,-421.569,0,0
360137,42.6451,-418.806,0,0
361438,42.5808,-415.909,0,0
362740.1,42.6202,-412.952,0,0
364041.725,42.8799,-409.903,0,0
365343.35,43.4199,-406.866,0,0
366644.975,44.272,-404.226,0,0
367946.6,44.7815,-401.817,0,0
369248.225,45.2843,-399.141,0,0
370549.85,46.4067,-396.465,0,0
371851.475,47.7207,-394.625,0,0
373153.1,48.6188,-393.233,0,0
374454.725,49.0005,-391.915,0,0
375756.35,49.1118,-390.341,0,0
377057.975,49.4951,-388.669,0,0
378359.6,49.7164,-387.448,0,0
379661,49.1757,-385.964,0,0
380963,49.3961,-383.696,0,0
382264,50.0731,-382.845,0,0
383566,49.2102,-382.338,0,0
384868,47.6443,-380.868,0,0
386169,46.243,-378.538,0,0
387471,45.2442,-375.753,0,0
388773,44.679,-372.75,0,0
390074,44.709,-369.892,0,0
391376,44.7472,-367.326,0,0
392677,44.7341,-364.833,0,0
393979,44.7066,-362.243,0,0
395280.7,44.8242,-359.627,0,0
396582.325,45.1281,-357.036,0,0
397883.95,45.5285,-354.672,0,0
399185.575,45.7176,-352.481,0,0
400006.6,45.7559,-351.03,0,0