Folder: ML_Dmg_Mehdi_Dataset/Accelerated corrosion test data/2025-10-15_15-08-31 (part 2)

File: sample_3.csv
Frequency (Hz),Impedance (ohms),Phase (Radians),Temperature (C),Humidity (%)
10000.0,251.812,-11845.4,0,0
11301.625,224.392,-10492.1,0,0
12603.25,202.685,-9416.6,0,0
13904.875,185.321,-8539.47,0,0
15206.5,173.898,-7805.51,0,0
16508.125,161.828,-7208.32,0,0
17809.75,157.258,-6677.3,0,0
19111.375,146.643,-6224.96,0,0
20413.0,162.028,-5820.68,0,0
21714.625,138.677,-5498.65,0,0
23016.25,128.264,-5192.35,0,0
24317.875,119.057,-4911.39,0,0
25619.5,113.547,-4663.15,0,0
26921.1,108.426,-4431.65,0,0
28222.7,104.072,-4223.85,0,0
29524.4,108.977,-4045.84,0,0
30826,101.186,-3873.14,0,0
32127.6,101.595,-3707.71,0,0
33429.2,99.0871,-3583.04,0,0
34730.9,88.0359,-3444.7,0,0
36032.5,83.4594,-3315.92,0,0
37334.1,80.3136,-3197.47,0,0
38635.7,78.0181,-3087.25,0,0
39937.4,76.1289,-2984.18,0,0
41239,74.251,-2886.52,0,0
42540.6,73.068,-2796.7,0,0
43842.225,71.9422,-2710.73,0,0
45143.85,70.9917,-2630.41,0,0
46445.475,69.9431,-2554.37,0,0
47747.1,70.3029,-2481.51,0,0
49048.725,68.6745,-2415.64,0,0
50350.35,66.6736,-2350.35,0,0
51651.975,66.2928,-2287.25,0,0
52953.6,66.5793,-2227.23,0,0
54255.225,69.574,-2172.06,0,0
55556.85,66.7246,-2124.54,0,0
56858.475,61.8012,-2071.41,0,0
58160.1,61.2751,-2019.28,0,0
59461.7,61.8068,-1969.7,0,0
60763.3,63.1299,-1922.86,0,0
62065,65.1367,-1877.85,0,0
63366.6,69.2412,-1833.93,0,0
64668.2,78.1357,-1791.98,0,0
65969.8,92.412,-1766.97,0,0
67271.5,76.2099,-1741.32,0,0
68573.1,76.4504,-1703.67,0,0
69874.7,76.1106,-1674.31,0,0
71176.3,70.894,-1643.42,0,0
72478,69.5767,-1610.61,0,0
73779.6,68.0348,-1582.29,0,0
75081.2,64.2694,-1553.82,0,0
76382.825,60.7717,-1524.44,0,0
77684.45,58.2088,-1495.37,0,0
78986.075,56.0033,-1466.72,0,0
80287.7,54.5183,-1438.45,0,0
81589.325,53.5192,-1411.19,0,0
82890.95,52.9645,-1384.65,0,0
84192.575,52.7288,-1358.85,0,0
85494.2,52.6262,-1333.79,0,0
86795.825,52.8604,-1309.39,0,0
88097.45,53.3691,-1285.34,0,0
89399.075,54.7381,-1261.49,0,0
90700.7,57.0205,-1239.74,0,0
92002.3,59.2607,-1219.04,0,0
93303.9,62.1543,-1200.21,0,0
94605.6,62.6666,-1185.58,0,0
95907.2,57.6301,-1167.55,0,0
97208.8,56.3123,-1146.18,0,0
98510.4,56.0795,-1126.45,0,0
99812.1,55.5328,-1107.33,0,0
101114,55.2148,-1087.41,0,0
102415,56.6516,-1066.82,0,0
103717,60.5226,-1049.2,0,0
105019,63.6538,-1034.89,0,0
106320.175,63.051,-1020.91,0,0
107621.8,61.0397,-1005.21,0,0
108923.425,59.2586,-987.664,0,0
110225.05,59.3426,-969.025,0,0
111526.675,61.5254,-951.171,0,0
112828.3,63.7501,-935.115,0,0
114129.925,65.413,-919.099,0,0
115431.55,67.5775,-902.12,0,0
116733.175,71.3064,-885.507,0,0
118034.8,77.3438,-869.549,0,0
119336.425,83.794,-857.585,0,0
120638.05,90.0504,-851.644,0,0
121939.675,86.9685,-843.095,0,0
123241,87.3754,-829.671,0,0
124543,88.9651,-818.319,0,0
125845,90.3705,-807.891,0,0
127146,89.7493,-798.189,0,0
128448,88.0887,-787.265,0,0
129749,86.5559,-774.212,0,0
131051,87.6876,-761.258,0,0
132353,87.0706,-750.282,0,0
133654,86.2615,-738.507,0,0
134956,84.5963,-725.836,0,0
136258,83.09,-712.372,0,0
137559,82.7162,-697.069,0,0
138860.775,84.0197,-683.268,0,0
140162.4,83.3843,-669.764,0,0
141464.025,82.8833,-655.461,0,0
142765.65,82.1815,-639.343,0,0
144067.275,82.5994,-622.093,0,0
145368.9,84.379,-603.875,0,0
146670.525,87.0597,-584.991,0,0
147972.15,91.4624,-564.896,0,0
149273.775,98.0925,-544.553,0,0
150575.4,108.879,-524.376,0,0
151877.025,121.751,-507.505,0,0
153178.65,134.06,-494.188,0,0
154480,143.989,-482.098,0,0
155782,152.288,-465.577,0,0
157084,164.289,-448.027,0,0
158385,180.699,-437.076,0,0
159687,185.026,-422.213,0,0
160988,200.952,-394.638,0,0
162290,227.07,-369.275,0,0
163592,262.538,-347.475,0,0
164893,312.146,-336.871,0,0
166195,363.741,-350.123,0,0
167497,403.066,-382.481,0,0
168798,423.95,-420.222,0,0
170100,421.1,-462.275,0,0
171401.375,404.654,-476.267,0,0
172703.0,401.692,-476.529,0,0
174004.625,410.217,-487.577,0,0
175306.25,411.455,-503.656,0,0
176607.875,409.472,-521.125,0,0
177909.5,387.983,-537.94,0,0
179211.125,366.033,-530.182,0,0
180512.75,361.853,-517.584,0,0
181814.375,366.514,-514.49,0,0
183116.0,359.388,-520.122,0,0
184417.625,344.508,-517.244,0,0
185719.25,330.687,-503.193,0,0
187021,327.178,-480.56,0,0
188322,334.07,-463.165,0,0
189624,338.721,-448.724,0,0
190926,348.871,-434.857,0,0
192227,357.364,-421.564,0,0
193529,368.77,-402.312,0,0
194831,392.877,-385.277,0,0
196132,425.73,-379.526,0,0
197434,449.072,-391.924,0,0
198735,462.82,-398.557,0,0
200037,472.294,-404.868,0,0
201339,477.76,-398.754,0,0
202640.35,498.63,-389.066,0,0
203941.975,528.568,-389.716,0,0
205243.6,556.769,-403.341,0,0
206545.225,569.077,-418.852,0,0
207846.85,589.295,-418.603,0,0
209148.475,621.785,-428.661,0,0
210450.1,654.104,-451.6,0,0
211751.725,679.994,-483.967,0,0
213053.35,700.845,-518.752,0,0
214354.975,715.074,-561.272,0,0
215656.6,722.15,-606.972,0,0
216958.225,718.409,-653.294,0,0
218259.85,705.654,-697.161,0,0
219561,686.885,-733.692,0,0
220863,667.241,-771.396,0,0
222165,638.017,-809.587,0,0
223466,591.451,-835.828,0,0
224768,550.863,-837.12,0,0
226070,530.284,-835.711,0,0
227371,512.638,-845.229,0,0
228673,486.742,-857.686,0,0
229974,459.715,-863.877,0,0
231276,431.424,-867.361,0,0
232578,404.056,-866.405,0,0
233879,379.002,-863.156,0,0
235180.95,355.64,-858.439,0,0
236482.575,330.805,-853.651,0,0
237784.2,305.957,-844.703,0,0
239085.825,282.072,-829.703,0,0
240387.45,264.948,-812.27,0,0
241689.075,250.639,-794.298,0,0
242990.7,242.277,-775.769,0,0
244292.325,238,-761.194,0,0
245593.95,232.624,-749.813,0,0
246895.575,227.476,-737.791,0,0
248197.2,223.513,-726.407,0,0
249498.825,222.724,-715.938,0,0
250800,220.216,-710.579,0,0
252102,213.344,-703.923,0,0
253404,205.382,-692.669,0,0
254705,201.009,-677.487,0,0
256007,201.864,-660.998,0,0
257309,209.577,-647.843,0,0
258610,216.874,-639.214,0,0
259912,228.558,-630.946,0,0
261213,244.455,-632.292,0,0
262515,253.796,-645.289,0,0
263817,251.104,-659.73,0,0
265118,240.095,-669.451,0,0
266420,225.726,-671.851,0,0
267721.55,212.059,-666.792,0,0
269023.175,203.336,-657.668,0,0
270324.8,197.997,-647.97,0,0
271626.425,197.005,-638.32,0,0
272928.05,197.148,-632.253,0,0
274229.675,196.925,-624.157,0,0
275531.3,201.152,-616.744,0,0
276832.925,208.572,-613.124,0,0
278134.55,215.89,-615.783,0,0
279436.175,218.908,-623.01,0,0
280737.8,215.891,-631.376,0,0
282039.425,208.316,-636.606,0,0
283341,198.975,-638.096,0,0
284643,189.533,-636.085,0,0
285944,181.223,-631.16,0,0
287246,175.588,-624.011,0,0
288548,173.936,-616.979,0,0
289849,173.614,-612.764,0,0
291151,172.692,-610.054,0,0
292452,170.098,-607.008,0,0
293754,168.964,-601.78,0,0
295056,171.179,-598.015,0,0
296357,174.164,-598.18,0,0
297659,174.529,-601.535,0,0
298960.525,171.266,-605.028,0,0
300262.15,165.931,-607.157,0,0
301563.775,159.177,-607.619,0,0
302865.4,152.078,-605.824,0,0
304167.025,145.746,-602.565,0,0
305468.65,140.18,-598.015,0,0
306770.275,136.287,-592.937,0,0
308071.9,133.778,-588.39,0,0
309373.525,131.53,-585.123,0,0
310675.15,128.635,-582.519,0,0
311976.775,124.452,-579.716,0,0
313278.4,119.755,-575.226,0,0
314580,116.145,-568.995,0,0
315882,114.997,-562.038,0,0
317183,115.743,-556.912,0,0
318485,116.256,-553.624,0,0
319787,116.268,-550.586,0,0
321088,116.46,-547.767,0,0
322390,117.424,-545.85,0,0
323691,117.876,-545.767,0,0
324993,116.525,-546.795,0,0
326295,113.09,-547.355,0,0
327596,108.647,-546.499,0,0
328898,104.101,-544.466,0,0
330200,99.9451,-541.764,0,0
331501.125,95.6596,-538.72,0,0
332802.75,91.3223,-535.036,0,0
334104.375,87.0218,-530.533,0,0
335406.0,83.3297,-524.969,0,0
336707.625,80.5019,-518.846,0,0
338009.25,78.5334,-512.585,0,0
339310.875,77.3179,-506.014,0,0
340612.5,77.7309,-499.194,0,0
341914.125,79.6948,-493.332,0,0
343215.75,82.4164,-489.499,0,0
344517.375,84.2609,-487.668,0,0
345819.0,84.4229,-485.982,0,0
347121,84.1013,-483.789,0,0
348422,83.3302,-481.3,0,0
349724,82.7886,-477.652,0,0
351025,83.7893,-473.985,0,0
352327,85.549,-472.259,0,0
353629,85.6377,-472.005,0,0
354930,84.1514,-470.939,0,0
356232,82.3873,-468.95,0,0
357534,80.6628,-466.206,0,0
358835,79.5652,-462.543,0,0
360137,79.4687,-459.2,0,0
361438,79.3516,-456.395,0,0
362740.1,79.0752,-453.34,0,0
364041.725,79.8314,-449.98,0,0
365343.35,81.3548,-448.092,0,0
366644.975,81.7389,-447.937,0,0
367946.6,80.0908,-447.349,0,0
369248.225,77.4249,-444.728,0,0
370549.85,76.9903,-440.159,0,0
371851.475,78.7097,-437.619,0,0
373153.1,78.9625,-437.321,0,0
374454.725,77.0819,-436.094,0,0
375756.35,75.1134,-433.243,0,0
377057.975,74.3667,-429.442,0,0
378359.6,74.7872,-425.991,0,0
379661,75.7103,-423.325,0,0
380963,76.4721,-421.716,0,0
382264,76.4962,-420.15,0,0
383566,76.4548,-418.72,0,0
384868,75.6075,-417.474,0,0
386169,74.355,-415.53,0,0
387471,72.9384,-413.028,0,0
388773,71.7497,-409.715,0,0
390074,71.2586,-405.664,0,0
391376,71.9413,-401.356,0,0
392677,73.9507,-397.724,0,0
393979,76.5149,-395.368,0,0
395280.7,78.8131,-394.117,0,0
396582.325,80.701,-393.761,0,0
397883.95,81.7718,-394.141,0,0
399185.575,81.6131,-394.569,0,0
400006.6,81.1697,-394.647,0,0

File: sample_4.csv
Frequency (Hz),Impedance (ohms),Phase (Radians),Temperature (C),Humidity (%)
10000.0,264.154,-11883.3,0,0
11301.625,234.499,-10527.7,0,0
12603.25,213.692,-9445.13,0,0
13904.875,193.436,-8563.97,0,0
15206.5,181.5,-7837.83,0,0
16508.125,192.819,-7223.58,0,0
17809.75,156.138,-6715.33,0,0
19111.375,145.312,-6258.07,0,0
20413.0,140.827,-5857.15,0,0
21714.625,146.761,-5512.28,0,0
23016.25,125.236,-5211.57,0,0
24317.875,115.865,-4927.44,0,0
25619.5,112.184,-4673.48,0,0
26921.1,106.395,-4443.24,0,0
28222.7,119.221,-4241.56,0,0
29524.4,111.338,-4060.67,0,0
30826,98.7602,-3888.45,0,0
32127.6,99.7954,-3728.48,0,0
33429.2,89.8026,-3587.63,0,0
34730.9,84.8225,-3449.03,0,0
36032.5,81.9591,-3321.43,0,0
37334.1,79.3921,-3202.44,0,0
38635.7,77.1991,-3090.71,0,0
39937.4,77.0682,-2984.75,0,0
41239,80.3588,-2890.54,0,0
42540.6,78.7214,-2801.98,0,0
43842.225,73.587,-2719.06,0,0
45143.85,71.3703,-2637.55,0,0
46445.475,70.3191,-2560.33,0,0
47747.1,70.2303,-2490.12,0,0
49048.725,66.26,-2421.01,0,0
50350.35,64.4117,-2353.57,0,0
51651.975,63.8151,-2288.83,0,0
52953.6,65.3607,-2226.02,0,0
54255.225,73.7984,-2169.52,0,0
55556.85,72.0745,-2126.35,0,0
56858.475,65.7,-2072.25,0,0
58160.1,66.7143,-2019.94,0,0
59461.7,71.0206,-1969.62,0,0
60763.3,80.2005,-1931.19,0,0
62065,70.139,-1898.47,0,0
63366.6,64.2979,-1852.79,0,0
64668.2,64.6438,-1809.28,0,0
65969.8,66.6905,-1768.58,0,0
67271.5,70.8109,-1732.59,0,0
68573.1,73.9011,-1703.8,0,0
69874.7,66.3888,-1673.49,0,0
71176.3,64.918,-1639.21,0,0
72478,59.4657,-1607.68,0,0
73779.6,57.9172,-1571.48,0,0
75081.2,60.0193,-1538.49,0,0
76382.825,62.3792,-1509.68,0,0
77684.45,65.1818,-1482.08,0,0
78986.075,63.8268,-1459.51,0,0
80287.7,60.8659,-1432.53,0,0
81589.325,60.3077,-1406.48,0,0
82890.95,59.0395,-1381.36,0,0
84192.575,57.9229,-1356.43,0,0
85494.2,57.1463,-1332.15,0,0
86795.825,56.4445,-1308.48,0,0
88097.45,55.0199,-1285.9,0,0
89399.075,53.6423,-1261.67,0,0
90700.7,53.493,-1238.4,0,0
92002.3,53.7824,-1215.23,0,0
93303.9,54.9921,-1194.49,0,0
94605.6,53.5727,-1173.87,0,0
95907.2,53.1519,-1151.32,0,0
97208.8,54.0582,-1129.58,0,0
98510.4,55.4572,-1107.99,0,0
99812.1,58.154,-1087.2,0,0
101114,62.6126,-1068.94,0,0
102415,61.6191,-1054.53,0,0
103717,58.8093,-1031.59,0,0
105019,62.7755,-1007.96,0,0
106320.175,69.5435,-987.558,0,0
107621.8,76.5687,-969.825,0,0
108923.425,85.1561,-953.529,0,0
110225.05,93.3853,-941.301,0,0
111526.675,99.3124,-930.975,0,0
112828.3,104.004,-921.535,0,0
114129.925,106.879,-913.011,0,0
115431.55,108.37,-904.715,0,0
116733.175,107.509,-896.209,0,0
118034.8,105.029,-885.189,0,0
119336.425,105.786,-870.743,0,0
120638.05,110.989,-865.375,0,0
121939.675,103.922,-858.841,0,0
123241,99.2822,-846.311,0,0
124543,96.1192,-833.507,0,0
125845,94.1223,-821.186,0,0
127146,90.5904,-809.846,0,0
128448,85.9216,-797.788,0,0
129749,79.5667,-782.785,0,0
131051,75.0817,-764.884,0,0
132353,72.83,-746.164,0,0
133654,72.2486,-727.361,0,0
134956,73.0175,-708.563,0,0
136258,75.2014,-690.143,0,0
137559,77.7852,-672.927,0,0
138860.775,79.7688,-654.907,0,0
140162.4,83.1813,-636.009,0,0
141464.025,88.1962,-617.031,0,0
142765.65,94.119,-598.645,0,0
144067.275,100.842,-580.155,0,0
145368.9,108.793,-561.332,0,0
146670.525,118.639,-542.759,0,0
147972.15,129.582,-524.83,0,0
149273.775,142.222,-506.995,0,0
150575.4,157.237,-488.924,0,0
151877.025,176.187,-472.742,0,0
153178.65,198.554,-461.161,0,0
154480,219.912,-456.436,0,0
155782,236.661,-452.782,0,0
157084,251.195,-450.07,0,0
158385,266.863,-444.049,0,0
159687,288.526,-441.994,0,0
160988,304.987,-450.402,0,0
162290,311.939,-455.457,0,0
163592,317.347,-455.109,0,0
164893,326.271,-449.069,0,0
166195,342.227,-442.096,0,0
167497,369.302,-442.582,0,0
168798,394.853,-459.275,0,0
170100,411.579,-488.627,0,0
171401.375,406.189,-526.247,0,0
172703.0,380.768,-550.934,0,0
174004.625,347.548,-555.045,0,0
175306.25,320.284,-542.999,0,0
176607.875,303.263,-520.692,0,0
177909.5,297.51,-497.418,0,0
179211.125,297.19,-476.399,0,0
180512.75,300.996,-457.784,0,0
181814.375,304.922,-441.134,0,0
183116.0,308.17,-423.447,0,0
184417.625,313.04,-402.002,0,0
185719.25,322.327,-378.071,0,0
187021,335.973,-352.722,0,0
188322,355.356,-325.806,0,0
189624,382.073,-298.867,0,0
190926,417.351,-274.186,0,0
192227,461.135,-254.252,0,0
193529,512.202,-243.043,0,0
194831,567.158,-241.316,0,0
196132,624.824,-247.332,0,0
197434,688.884,-263.438,0,0
198735,756.909,-297.365,0,0
200037,820.862,-356.327,0,0
201339,863.079,-436.098,0,0
202640.35,877.057,-520.069,0,0
203941.975,874.27,-597.399,0,0
205243.6,854.053,-667.311,0,0
206545.225,827.863,-726.519,0,0
207846.85,791.658,-787.022,0,0
209148.475,736.604,-830.319,0,0
210450.1,682.179,-851.417,0,0
211751.725,634.757,-857.888,0,0
213053.35,598.562,-856.619,0,0
214354.975,571.849,-850.438,0,0
215656.6,558.184,-851.862,0,0
216958.225,538.465,-861.007,0,0
218259.85,518.288,-866.826,0,0
219561,498.422,-873.625,0,0
220863,475.344,-881.261,0,0
222165,451.013,-885.243,0,0
223466,426.947,-887.002,0,0
224768,403.552,-888.847,0,0
226070,376.496,-889.498,0,0
227371,347.357,-885.062,0,0
228673,318.486,-874.338,0,0
229974,294.831,-857.665,0,0
231276,276.45,-839.636,0,0
232578,262.437,-821.597,0,0
233879,252.055,-804.053,0,0
235180.95,244.622,-787.954,0,0
236482.575,238.442,-773.791,0,0
237784.2,233.856,-759.356,0,0
239085.825,232.478,-747.158,0,0
240387.45,231.364,-738.185,0,0
241689.075,229.304,-731.234,0,0
242990.7,225.671,-725.56,0,0
244292.325,220.161,-719.705,0,0
245593.95,213.378,-711.619,0,0
246895.575,208.129,-701.757,0,0
248197.2,205.252,-692.076,0,0
249498.825,202.403,-683.43,0,0
250800,199.844,-675.716,0,0
252102,195.106,-668.555,0,0
253404,188.566,-657.8,0,0
254705,184.4,-644.001,0,0
256007,182.301,-626.965,0,0
257309,186.034,-608.142,0,0
258610,195.557,-590.338,0,0
259912,211.425,-576.519,0,0
261213,229.77,-567.714,0,0
262515,250.096,-565.384,0,0
263817,271.941,-570.161,0,0
265118,289.162,-583.787,0,0
266420,300.217,-601.004,0,0
267721.55,305.638,-621.719,0,0
269023.175,301.291,-645.075,0,0
270324.8,286.342,-659.478,0,0
271626.425,275.129,-666.463,0,0
272928.05,265.371,-674.262,0,0
274229.675,252.789,-682.543,0,0
275531.3,234.729,-688.528,0,0
276832.925,214.22,-687.37,0,0
278134.55,194.928,-677.046,0,0
279436.175,185.242,-660.62,0,0
280737.8,184.323,-649.307,0,0
282039.425,181.861,-642.414,0,0
283341,181.792,-635.007,0,0
284643,181.207,-632.453,0,0
285944,177.426,-630.332,0,0
287246,171.363,-624.757,0,0
288548,166.34,-615.19,0,0
289849,168.592,-601.615,0,0
291151,178.968,-593.401,0,0
292452,191.504,-594.097,0,0
293754,199.686,-603.591,0,0
295056,199.639,-616.486,0,0
296357,190.893,-627.097,0,0
297659,178.956,-630.522,0,0
298960.525,168.965,-629.756,0,0
300262.15,160.351,-628.059,0,0
301563.775,151.887,-625.073,0,0
302865.4,144.51,-620.802,0,0
304167.025,137.702,-615.615,0,0
305468.65,132.444,-609.449,0,0
306770.275,128.68,-603.257,0,0
308071.9,126.607,-597.842,0,0
309373.525,124.935,-594.126,0,0
310675.15,121.897,-591.269,0,0
311976.775,118.284,-587.297,0,0
313278.4,115.31,-582.744,0,0
314580,113.426,-578.208,0,0
315882,112.015,-574.557,0,0
317183,110.687,-571.701,0,0
318485,108.968,-569.669,0,0
319787,106.508,-568.394,0,0
321088,102.403,-567.516,0,0
322390,96.0225,-565.479,0,0
323691,89.0936,-560.086,0,0
324993,84.7297,-552.933,0,0
326295,81.843,-546.286,0,0
327596,79.2519,-539.569,0,0
328898,77.7091,-532.331,0,0
330200,77.5735,-525.153,0,0
331501.125,78.8689,-519.299,0,0
332802.75,80.4403,-515.216,0,0
334104.375,80.6229,-512.633,0,0
335406.0,79.3179,-509.609,0,0
336707.625,77.1591,-505.426,0,0
338009.25,75.7768,-499.688,0,0
339310.875,75.4859,-493.506,0,0
340612.5,76.7797,-486.95,0,0
341914.125,80.053,-481.253,0,0
343215.75,84.68,-477.95,0,0
344517.375,88.3136,-477.491,0,0
345819.0,89.8838,-478.081,0,0
347121,89.5942,-478.511,0,0
348422,88.0809,-478.212,0,0
349724,85.9988,-476.757,0,0
351025,83.9123,-474.421,0,0
352327,81.9794,-471.185,0,0
353629,81.1344,-467.148,0,0
354930,81.4037,-463.903,0,0
356232,81.3392,-461.412,0,0
357534,80.7538,-459.067,0,0
358835,79.6182,-456.34,0,0
360137,78.5378,-452.743,0,0
361438,78.2224,-448.461,0,0
362740.1,79.0153,-444.603,0,0
364041.725,79.7712,-441.585,0,0
365343.35,79.8036,-438.419,0,0
366644.975,80.103,-434.094,0,0
367946.6,81.8556,-429.525,0,0
369248.225,84.9799,-425.345,0,0
370549.85,89.2012,-422.271,0,0
371851.475,94.7044,-421.19,0,0
373153.1,99.4289,-423.016,0,0
374454.725,101.432,-426.863,0,0
375756.35,100.47,-429.435,0,0
377057.975,99.284,-430.519,0,0
378359.6,98.1798,-431.218,0,0
379661,96.6552,-431.656,0,0
380963,94.863,-431.46,0,0
382264,94.0625,-430.084,0,0
383566,94.712,-431.024,0,0
384868,92.4784,-433.81,0,0
386169,87.4887,-434.999,0,0
387471,81.7853,-433.056,0,0
388773,78.0399,-428.509,0,0
390074,77.4336,-423.861,0,0
391376,78.4554,-422.196,0,0
392677,77.0717,-423.067,0,0
393979,72.9182,-422.504,0,0
395280.7,68.5156,-419.587,0,0
396582.325,65.3509,-415.383,0,0
397883.95,62.9553,-410.984,0,0
399185.575,61.0637,-406.216,0,0
400006.6,60.2596,-403.053,0,0