Folder: ML_Dmg_Mehdi_Dataset/Accelerated corrosion test data/2025-10-16_06-00-08 (part 2)

File: sample_3.csv
Frequency (Hz),Impedance (ohms),Phase (Radians),Temperature (C),Humidity (%)
10000.0,251.821,-11881.8,0,0
11301.625,224.408,-10524.3,0,0
12603.25,203.127,-9445.54,0,0
13904.875,186.221,-8565,0,0
15206.5,173.483,-7829.09,0,0
16508.125,161.983,-7230.34,0,0
17809.75,157.413,-6697.59,0,0
19111.375,147.232,-6243.32,0,0
20413.0,159.867,-5836.89,0,0
21714.625,138.973,-5515.83,0,0
23016.25,128.557,-5208.03,0,0
24317.875,119.489,-4926.41,0,0
25619.5,114.032,-4677.57,0,0
26921.1,108.769,-4444.82,0,0
28222.7,104.009,-4236.73,0,0
29524.4,109.118,-4058.34,0,0
30826,101.655,-3885.09,0,0
32127.6,101.721,-3719.01,0,0
33429.2,99.48,-3593.91,0,0
34730.9,88.5795,-3455.28,0,0
36032.5,83.6825,-3326.13,0,0
37334.1,80.4684,-3207.37,0,0
38635.7,78.28,-3096.79,0,0
39937.4,75.9154,-2993.37,0,0
41239,74.3958,-2895.5,0,0
42540.6,73.3244,-2805.17,0,0
43842.225,71.9333,-2718.83,0,0
45143.85,71.3349,-2638.67,0,0
46445.475,69.9881,-2562.38,0,0
47747.1,70.1277,-2489.1,0,0
49048.725,68.7885,-2423.31,0,0
50350.35,66.7506,-2357.8,0,0
51651.975,66.2553,-2294.51,0,0
52953.6,66.5096,-2234.36,0,0
54255.225,69.2893,-2178.87,0,0
55556.85,66.839,-2130.94,0,0
56858.475,61.8669,-2077.97,0,0
58160.1,61.2337,-2025.47,0,0
59461.7,61.641,-1975.94,0,0
60763.3,63.1213,-1928.94,0,0
62065,64.9414,-1883.82,0,0
63366.6,69.0182,-1839.85,0,0
64668.2,77.7481,-1797.66,0,0
65969.8,92.1359,-1771.49,0,0
67271.5,75.9889,-1746.49,0,0
68573.1,76.4224,-1708.57,0,0
69874.7,76.4737,-1679.02,0,0
71176.3,71.3047,-1648.41,0,0
72478,70.0594,-1615.54,0,0
73779.6,68.5444,-1587.09,0,0
75081.2,64.9086,-1558.97,0,0
76382.825,61.2301,-1529.57,0,0
77684.45,58.5746,-1500.51,0,0
78986.075,56.291,-1471.8,0,0
80287.7,54.6424,-1443.53,0,0
81589.325,53.5686,-1416.05,0,0
82890.95,52.9442,-1389.4,0,0
84192.575,52.6296,-1363.53,0,0
85494.2,52.5453,-1338.39,0,0
86795.825,52.7135,-1313.86,0,0
88097.45,53.2377,-1289.71,0,0
89399.075,54.5572,-1265.87,0,0
90700.7,56.689,-1244.05,0,0
92002.3,58.9244,-1223.12,0,0
93303.9,61.8482,-1203.99,0,0
94605.6,62.6222,-1189.29,0,0
95907.2,57.588,-1171.38,0,0
97208.8,56.3103,-1149.92,0,0
98510.4,56.1076,-1130.15,0,0
99812.1,55.609,-1111.02,0,0
101114,55.2228,-1091.14,0,0
102415,56.5504,-1070.51,0,0
103717,60.5421,-1052.71,0,0
105019,63.7985,-1038.34,0,0
106320.175,63.2415,-1024.52,0,0
107621.8,61.2329,-1008.9,0,0
108923.425,59.2951,-991.466,0,0
110225.05,59.2596,-972.809,0,0
111526.675,61.3969,-954.885,0,0
112828.3,63.6037,-938.724,0,0
114129.925,65.0475,-922.738,0,0
115431.55,66.9959,-905.747,0,0
116733.175,70.6013,-888.901,0,0
118034.8,76.4896,-872.619,0,0
119336.425,83.0909,-860.49,0,0
120638.05,89.5232,-854.233,0,0
121939.675,86.5036,-845.88,0,0
123241,86.891,-832.155,0,0
124543,88.6584,-820.599,0,0
125845,90.3025,-810.034,0,0
127146,89.9167,-800.304,0,0
128448,88.6147,-789.675,0,0
129749,87.1687,-776.954,0,0
131051,88.063,-764.065,0,0
132353,87.4207,-753.054,0,0
133654,86.6054,-741.219,0,0
134956,85.0931,-728.575,0,0
136258,83.6754,-715.242,0,0
137559,83.2351,-700.038,0,0
138860.775,84.5371,-686.284,0,0
140162.4,83.9009,-673.067,0,0
141464.025,83.3281,-658.832,0,0
142765.65,82.4646,-642.889,0,0
144067.275,82.6867,-625.65,0,0
145368.9,84.3188,-607.5,0,0
146670.525,86.8538,-588.625,0,0
147972.15,91.0454,-568.69,0,0
149273.775,97.4166,-548.393,0,0
150575.4,107.712,-528.036,0,0
151877.025,120.287,-510.745,0,0
153178.65,132.757,-497.051,0,0
154480,142.941,-484.786,0,0
155782,151.289,-468.409,0,0
157084,163.084,-451.102,0,0
158385,179.915,-439.754,0,0
159687,183.842,-425.95,0,0
160988,198.598,-398.374,0,0
162290,224.056,-372.939,0,0
163592,257.225,-350.42,0,0
164893,306.199,-337.471,0,0
166195,357.869,-348.902,0,0
167497,398.439,-378.362,0,0
168798,421.814,-413.937,0,0
170100,423.58,-455.971,0,0
171401.375,409.555,-472.434,0,0
172703.0,407.062,-475.623,0,0
174004.625,415.307,-486.843,0,0
175306.25,417.73,-504.216,0,0
176607.875,416.048,-523.248,0,0
177909.5,393.671,-543.398,0,0
179211.125,368.906,-536.028,0,0
180512.75,363.59,-522.007,0,0
181814.375,369.163,-518.19,0,0
183116.0,362.987,-525.642,0,0
184417.625,347.247,-524.538,0,0
185719.25,332.107,-511.638,0,0
187021,326.05,-489.461,0,0
188322,331.082,-470.924,0,0
189624,334.881,-455.676,0,0
190926,344.802,-440.396,0,0
192227,353.376,-426.722,0,0
193529,364.06,-407.421,0,0
194831,387.352,-390.376,0,0
196132,418.617,-383.158,0,0
197434,441.878,-393.937,0,0
198735,455.871,-398.684,0,0
200037,467.007,-403.205,0,0
201339,473.66,-398.243,0,0
202640.35,494.067,-388.961,0,0
203941.975,523.868,-388.829,0,0
205243.6,552.112,-402.032,0,0
206545.225,564.72,-417.228,0,0
207846.85,584.213,-415.945,0,0
209148.475,617.242,-423.924,0,0
210450.1,651.213,-446.083,0,0
211751.725,679.136,-478.239,0,0
213053.35,701.1,-513.217,0,0
214354.975,716.635,-556.819,0,0
215656.6,723.792,-603.036,0,0
216958.225,720.691,-649.146,0,0
218259.85,708.801,-693.1,0,0
219561,691.035,-730.725,0,0
220863,672.103,-769.578,0,0
222165,643.051,-809.104,0,0
223466,596.931,-836.912,0,0
224768,554.596,-839.865,0,0
226070,532.132,-838.411,0,0
227371,513.325,-846.953,0,0
228673,487.69,-858.657,0,0
229974,460.575,-863.991,0,0
231276,432.86,-867.505,0,0
232578,405.724,-866.28,0,0
233879,381.225,-862.833,0,0
235180.95,358.453,-858.27,0,0
236482.575,334.502,-854.19,0,0
237784.2,310.097,-846.395,0,0
239085.825,285.737,-832.678,0,0
240387.45,267.851,-816.021,0,0
241689.075,252.544,-798.775,0,0
242990.7,242.984,-780.205,0,0
244292.325,237.86,-765.098,0,0
245593.95,231.883,-753.307,0,0
246895.575,226.18,-740.719,0,0
248197.2,221.839,-728.504,0,0
249498.825,221.222,-716.875,0,0
250800,220.042,-710.98,0,0
252102,213.827,-705.027,0,0
253404,205.611,-694.739,0,0
254705,200.325,-679.829,0,0
256007,200.367,-663.046,0,0
257309,207.587,-648.758,0,0
258610,215.241,-639.595,0,0
259912,226.676,-630.459,0,0
261213,243.304,-630.388,0,0
262515,254.367,-642.915,0,0
263817,253.341,-657.876,0,0
265118,243.459,-669.255,0,0
266420,228.994,-673.252,0,0
267721.55,214.484,-669.536,0,0
269023.175,204.45,-660.806,0,0
270324.8,198.292,-651.096,0,0
271626.425,196.333,-641.332,0,0
272928.05,195.775,-634.818,0,0
274229.675,194.64,-626.209,0,0
275531.3,198.159,-617.738,0,0
276832.925,205.352,-612.556,0,0
278134.55,213.372,-613.551,0,0
279436.175,217.936,-619.545,0,0
280737.8,216.732,-627.786,0,0
282039.425,210.786,-633.45,0,0
283341,202.635,-636.07,0,0
284643,193.661,-635.541,0,0
285944,185.216,-631.816,0,0
287246,179.286,-625.457,0,0
288548,177.337,-619.087,0,0
289849,176.616,-615.688,0,0
291151,174.876,-613.713,0,0
292452,171.254,-611.191,0,0
293754,168.731,-605.968,0,0
295056,169.75,-601.5,0,0
296357,172.009,-600.5,0,0
297659,172.322,-602.611,0,0
298960.525,169.508,-605.116,0,0
300262.15,164.876,-606.734,0,0
301563.775,158.833,-607.154,0,0
302865.4,152.097,-605.512,0,0
304167.025,145.946,-602.401,0,0
305468.65,140.396,-597.955,0,0
306770.275,136.445,-592.76,0,0
308071.9,134.062,-587.969,0,0
309373.525,132.171,-584.507,0,0
310675.15,129.758,-581.905,0,0
311976.775,125.999,-579.427,0,0
313278.4,121.496,-575.385,0,0
314580,117.711,-569.623,0,0
315882,116.05,-562.996,0,0
317183,116.646,-557.701,0,0
318485,116.944,-554.152,0,0
319787,116.948,-550.923,0,0
321088,117.291,-547.86,0,0
322390,118.477,-545.728,0,0
323691,119.275,-545.695,0,0
324993,118.329,-546.955,0,0
326295,115.056,-547.775,0,0
327596,110.672,-547.195,0,0
328898,106.065,-545.517,0,0
330200,101.649,-542.841,0,0
331501.125,97.4205,-539.979,0,0
332802.75,93.0641,-536.401,0,0
334104.375,88.6576,-532.036,0,0
335406.0,84.7196,-526.551,0,0
336707.625,81.6747,-520.663,0,0
338009.25,79.6769,-514.483,0,0
339310.875,78.2082,-507.989,0,0
340612.5,78.1136,-501.05,0,0
341914.125,79.8308,-494.942,0,0
343215.75,82.4878,-490.736,0,0
344517.375,84.4976,-488.582,0,0
345819.0,84.9067,-486.868,0,0
347121,84.6686,-484.643,0,0
348422,83.9895,-482.14,0,0
349724,83.3308,-478.624,0,0
351025,84.2549,-474.887,0,0
352327,86.0786,-472.982,0,0
353629,86.4429,-472.551,0,0
354930,85.0467,-471.563,0,0
356232,83.4561,-469.6,0,0
357534,81.7339,-467.049,0,0
358835,80.6207,-463.505,0,0
360137,80.3942,-460.223,0,0
361438,80.3575,-457.5,0,0
362740.1,79.9442,-454.633,0,0
364041.725,80.4442,-451.185,0,0
365343.35,81.8546,-449.023,0,0
366644.975,82.4448,-448.642,0,0
367946.6,81.0671,-447.969,0,0
369248.225,78.5808,-445.639,0,0
370549.85,77.9062,-441.196,0,0
371851.475,79.5817,-438.497,0,0
373153.1,79.9984,-438.117,0,0
374454.725,78.1796,-437.004,0,0
375756.35,76.2445,-434.247,0,0
377057.975,75.4452,-430.454,0,0
378359.6,75.8668,-427.046,0,0
379661,76.7433,-424.317,0,0
380963,77.7012,-422.764,0,0
382264,77.6477,-421.438,0,0
383566,77.4023,-419.974,0,0
384868,76.5551,-418.731,0,0
386169,75.2514,-416.712,0,0
387471,73.9383,-414.169,0,0
388773,72.727,-410.845,0,0
390074,72.2906,-406.804,0,0
391376,72.9817,-402.573,0,0
392677,75.0047,-398.941,0,0
393979,77.5834,-396.658,0,0
395280.7,79.8239,-395.478,0,0
396582.325,81.6229,-395.033,0,0
397883.95,82.7414,-395.366,0,0
399185.575,82.6294,-395.787,0,0
400006.6,82.2708,-395.865,0,0

File: sample_4.csv
Frequency (Hz),Impedance (ohms),Phase (Radians),Temperature (C),Humidity (%)
10000.0,263.58,-11920.3,0,0
11301.625,234.004,-10560.5,0,0
12603.25,213.497,-9474.62,0,0
13904.875,193.356,-8590.25,0,0
15206.5,181.492,-7861.62,0,0
16508.125,190.516,-7244.45,0,0
17809.75,156.114,-6736.63,0,0
19111.375,145.418,-6277.8,0,0
20413.0,140.802,-5875.43,0,0
21714.625,146.827,-5529.05,0,0
23016.25,125.135,-5228.35,0,0
24317.875,116.181,-4942.45,0,0
25619.5,112.232,-4688.22,0,0
26921.1,106.728,-4457.74,0,0
28222.7,120.78,-4254.56,0,0
29524.4,112.454,-4074.07,0,0
30826,99.093,-3901.51,0,0
32127.6,99.8877,-3739.94,0,0
33429.2,90.0302,-3598.93,0,0
34730.9,84.9246,-3459.96,0,0
36032.5,81.7338,-3331.84,0,0
37334.1,79.6796,-3212.47,0,0
38635.7,76.9881,-3100.35,0,0
39937.4,76.9386,-2993.86,0,0
41239,80.39,-2899.2,0,0
42540.6,78.5107,-2810.6,0,0
43842.225,73.7617,-2727.3,0,0
45143.85,71.2973,-2645.89,0,0
46445.475,70.4361,-2568.43,0,0
47747.1,70.142,-2498.38,0,0
49048.725,66.1015,-2428.81,0,0
50350.35,64.3093,-2361.13,0,0
51651.975,63.8311,-2296.27,0,0
52953.6,65.2166,-2233.26,0,0
54255.225,73.7514,-2176.41,0,0
55556.85,72.0012,-2133.36,0,0
56858.475,65.5698,-2079.07,0,0
58160.1,66.5154,-2026.49,0,0
59461.7,70.3809,-1976.1,0,0
60763.3,79.5538,-1937.14,0,0
62065,69.9137,-1904.19,0,0
63366.6,64.1705,-1858.79,0,0
64668.2,64.5406,-1815.09,0,0
65969.8,66.1921,-1774.18,0,0
67271.5,70.0887,-1737.92,0,0
68573.1,73.8693,-1708.66,0,0
69874.7,66.4879,-1678.8,0,0
71176.3,64.802,-1644.56,0,0
72478,59.3599,-1612.92,0,0
73779.6,57.7154,-1576.49,0,0
75081.2,59.631,-1543.41,0,0
76382.825,62.2614,-1514.25,0,0
77684.45,65.1091,-1486.45,0,0
78986.075,64.0697,-1464.03,0,0
80287.7,61.0272,-1437.13,0,0
81589.325,60.5543,-1410.99,0,0
82890.95,59.3138,-1386.06,0,0
84192.575,58.0252,-1361.14,0,0
85494.2,57.115,-1336.76,0,0
86795.825,56.336,-1313,0,0
88097.45,54.9228,-1290.26,0,0
89399.075,53.4948,-1265.95,0,0
90700.7,53.4456,-1242.66,0,0
92002.3,53.6919,-1219.49,0,0
93303.9,55.0484,-1198.56,0,0
94605.6,53.7029,-1178.39,0,0
95907.2,52.9575,-1155.84,0,0
97208.8,53.7119,-1134.02,0,0
98510.4,54.9876,-1112.47,0,0
99812.1,57.4481,-1091.65,0,0
101114,61.5571,-1072.97,0,0
102415,60.9886,-1058.28,0,0
103717,58.056,-1035.65,0,0
105019,61.6002,-1011.97,0,0
106320.175,68.0397,-991.337,0,0
107621.8,74.8596,-973.235,0,0
108923.425,83.2013,-956.258,0,0
110225.05,91.5617,-943.437,0,0
111526.675,97.7727,-932.645,0,0
112828.3,103.038,-922.528,0,0
114129.925,106.533,-913.737,0,0
115431.55,108.676,-905.358,0,0
116733.175,108.523,-896.939,0,0
118034.8,106.697,-886.289,0,0
119336.425,107.799,-872.552,0,0
120638.05,113.005,-867.529,0,0
121939.675,106.077,-861.569,0,0
123241,101.185,-849.256,0,0
124543,98.0868,-836.503,0,0
125845,96.4728,-824.363,0,0
127146,93.2451,-813.676,0,0
128448,88.284,-802.622,0,0
129749,81.1867,-788.177,0,0
131051,75.9222,-770.391,0,0
132353,73.0539,-751.488,0,0
133654,72.1501,-732.47,0,0
134956,72.6069,-713.502,0,0
136258,74.5285,-694.875,0,0
137559,77.0963,-677.522,0,0
138860.775,78.9548,-659.408,0,0
140162.4,82.2705,-640.341,0,0
141464.025,87.2982,-621.242,0,0
142765.65,93.3158,-602.969,0,0
144067.275,99.8573,-584.84,0,0
145368.9,107.239,-566.179,0,0
146670.525,116.565,-547.403,0,0
147972.15,127.211,-529.26,0,0
149273.775,139.558,-511.234,0,0
150575.4,153.974,-493.055,0,0
151877.025,172.397,-476.187,0,0
153178.65,194.6,-463.564,0,0
154480,216.517,-457.894,0,0
155782,233.887,-454.04,0,0
157084,249.402,-451.97,0,0
158385,264.377,-446.971,0,0
159687,284.985,-444.238,0,0
160988,301.713,-451.428,0,0
162290,309.067,-456.623,0,0
163592,314.144,-456.806,0,0
164893,321.879,-450.64,0,0
166195,336.298,-442.333,0,0
167497,362.89,-439.756,0,0
168798,390.241,-453.632,0,0
170100,410.569,-481.143,0,0
171401.375,410.085,-520.004,0,0
172703.0,387.325,-548.331,0,0
174004.625,353.663,-556.33,0,0
175306.25,324.941,-546.949,0,0
176607.875,305.257,-525.727,0,0
177909.5,297.635,-502.012,0,0
179211.125,296.43,-480.443,0,0
180512.75,300.115,-461.112,0,0
181814.375,304.353,-444.717,0,0
183116.0,307.482,-428.163,0,0
184417.625,311.136,-407.99,0,0
185719.25,318.53,-384.868,0,0
187021,329.618,-360.055,0,0
188322,345.733,-332.909,0,0
189624,368.473,-304.357,0,0
190926,399.917,-276.287,0,0
192227,440.437,-251.229,0,0
193529,489.906,-232.996,0,0
194831,545.698,-223.089,0,0
196132,606.384,-220.862,0,0
197434,676.368,-228.238,0,0
198735,754.845,-254.019,0,0
200037,834.824,-308.486,0,0
201339,895.304,-392.648,0,0
202640.35,923.859,-489.32,0,0
203941.975,928.738,-582.95,0,0
205243.6,908.353,-670.733,0,0
206545.225,875.309,-744.41,0,0
207846.85,830.483,-814.764,0,0
209148.475,764.459,-863.919,0,0
210450.1,699.897,-885.731,0,0
211751.725,644.985,-891.287,0,0
213053.35,603.114,-888.243,0,0
214354.975,570.915,-880.366,0,0
215656.6,552.788,-878.888,0,0
216958.225,529.143,-885.044,0,0
218259.85,505.838,-886.945,0,0
219561,483.793,-889.277,0,0
220863,460.145,-891.944,0,0
222165,436.86,-891.302,0,0
223466,415.254,-889.432,0,0
224768,395.37,-889.28,0,0
226070,371.595,-890.074,0,0
227371,344.771,-887.021,0,0
228673,316.7,-878.29,0,0
229974,292.703,-863.06,0,0
231276,273.562,-845.885,0,0
232578,258.718,-828.415,0,0
233879,247.278,-811.213,0,0
235180.95,238.391,-795.036,0,0
236482.575,230.749,-780.325,0,0
237784.2,224.77,-764.734,0,0
239085.825,222.492,-750.653,0,0
240387.45,221.345,-739.711,0,0
241689.075,220.021,-731.006,0,0
242990.7,217.599,-724.294,0,0
244292.325,213.109,-718.16,0,0
245593.95,206.747,-710.254,0,0
246895.575,201.411,-700.174,0,0
248197.2,198.491,-689.471,0,0
249498.825,196.135,-679.84,0,0
250800,194.6,-671.149,0,0
252102,191.519,-663.656,0,0
253404,186.242,-653.648,0,0
254705,182.746,-640.659,0,0
256007,180.623,-624.878,0,0
257309,183.473,-606.641,0,0
258610,191.974,-588.808,0,0
259912,206.846,-573.915,0,0
261213,224.753,-563.91,0,0
262515,245.293,-560.407,0,0
263817,267.343,-563.182,0,0
265118,286.271,-574.932,0,0
266420,299.206,-591.028,0,0
267721.55,307.645,-610.851,0,0
269023.175,307.088,-635.389,0,0
270324.8,293.639,-653.313,0,0
271626.425,282.258,-662.298,0,0
272928.05,272.364,-671.367,0,0
274229.675,259.501,-680.794,0,0
275531.3,241.362,-687.893,0,0
276832.925,220.618,-687.659,0,0
278134.55,200.357,-678.646,0,0
279436.175,189.274,-662.314,0,0
280737.8,188.177,-650.463,0,0
282039.425,185.938,-643.968,0,0
283341,185.564,-636.663,0,0
284643,185.351,-634.962,0,0
285944,180.874,-633.938,0,0
287246,173.446,-629.022,0,0
288548,167.208,-619.753,0,0
289849,167.45,-605.579,0,0
291151,176.594,-595.688,0,0
292452,188.891,-594.212,0,0
293754,198.254,-601.918,0,0
295056,199.995,-613.978,0,0
296357,193.024,-625.129,0,0
297659,181.699,-629.671,0,0
298960.525,171.671,-629.599,0,0
300262.15,163.145,-628.255,0,0
301563.775,154.703,-625.797,0,0
302865.4,147.282,-621.925,0,0
304167.025,140.215,-617.374,0,0
305468.65,134.341,-611.572,0,0
306770.275,129.951,-605.435,0,0
308071.9,127.3,-599.605,0,0
309373.525,125.521,-595.392,0,0
310675.15,122.596,-592.25,0,0
311976.775,118.939,-588.1,0,0
313278.4,116.06,-583.395,0,0
314580,114.308,-578.584,0,0
315882,113.071,-574.674,0,0
317183,112.116,-571.616,0,0
318485,110.865,-569.616,0,0
319787,108.985,-568.588,0,0
321088,105.116,-568.184,0,0
322390,98.9446,-566.842,0,0
323691,91.8475,-562.063,0,0
324993,86.9995,-555.131,0,0
326295,83.8553,-548.654,0,0
327596,80.9696,-542.095,0,0
328898,79.0137,-534.927,0,0
330200,78.5783,-527.81,0,0
331501.125,79.6224,-521.702,0,0
332802.75,80.9504,-517.504,0,0
334104.375,81.1228,-514.705,0,0
335406.0,79.8357,-511.71,0,0
336707.625,77.6292,-507.494,0,0
338009.25,76.0294,-501.858,0,0
339310.875,75.5627,-495.707,0,0
340612.5,76.4338,-489.223,0,0
341914.125,79.2038,-483.097,0,0
343215.75,83.5578,-479.169,0,0
344517.375,87.4151,-477.846,0,0
345819.0,89.5327,-478.036,0,0
347121,89.8955,-478.48,0,0
348422,88.8513,-478.376,0,0
349724,86.9645,-477.187,0,0
351025,85.0877,-475.172,0,0
352327,83.0185,-472.316,0,0
353629,81.8758,-468.494,0,0
354930,81.908,-465.147,0,0
356232,81.69,-462.542,0,0
357534,81.1666,-460.097,0,0
358835,80.1084,-457.324,0,0
360137,79.0723,-453.927,0,0
361438,78.4602,-449.746,0,0
362740.1,79.0268,-445.809,0,0
364041.725,79.6804,-442.566,0,0
365343.35,79.7086,-439.34,0,0
366644.975,79.7802,-435.016,0,0
367946.6,81.3183,-430.081,0,0
369248.225,84.3644,-425.547,0,0
370549.85,88.6292,-422.181,0,0
371851.475,94.0448,-420.388,0,0
373153.1,99.2548,-421.635,0,0
374454.725,102.125,-425.011,0,0
375756.35,101.99,-427.952,0,0
377057.975,101.253,-429.33,0,0
378359.6,100.366,-430.342,0,0
379661,99.0781,-431.078,0,0
380963,97.4512,-431.161,0,0
382264,96.4593,-429.983,0,0
383566,97.5275,-430.661,0,0
384868,96.0369,-433.963,0,0
386169,91.2296,-435.931,0,0
387471,85.2424,-434.723,0,0
388773,80.9515,-430.562,0,0
390074,79.8683,-425.967,0,0
391376,80.8321,-424.183,0,0
392677,79.6068,-425.269,0,0
393979,75.2421,-425.112,0,0
395280.7,70.4117,-422.353,0,0
396582.325,66.7819,-418.044,0,0
397883.95,64.2344,-413.537,0,0
399185.575,62.2617,-408.692,0,0
400006.6,61.3655,-405.434,0,0