Folder: ML_Dmg_Mehdi_Dataset/Accelerated corrosion test data/2025-10-11_06-00-04 (part 4)

File: sample_8.csv
Frequency (Hz),Impedance (ohms),Phase (Radians),Temperature (C),Humidity (%)
10000.0,311.325,-10955.5,0,0
11301.625,276.35,-9708.88,0,0
12603.25,254.309,-8719.17,0,0
13904.875,226.198,-7918.66,0,0
15206.5,205.505,-7245.96,0,0
16508.125,189.682,-6680.25,0,0
17809.75,176.719,-6194.07,0,0
19111.375,168.151,-5773.31,0,0
20413.0,160.259,-5410.97,0,0
21714.625,150.672,-5090.92,0,0
23016.25,144.541,-4808.58,0,0
24317.875,134.735,-4551.59,0,0
25619.5,127.2,-4319.66,0,0
26921.1,122.35,-4108.58,0,0
28222.7,119.184,-3918.42,0,0
29524.4,116.827,-3745.15,0,0
30826,115.755,-3588.27,0,0
32127.6,113.848,-3442.68,0,0
33429.2,115.831,-3309.19,0,0
34730.9,113.126,-3193.18,0,0
36032.5,105.679,-3083.23,0,0
37334.1,97.9276,-2976.03,0,0
38635.7,91.2961,-2874.08,0,0
39937.4,86.1755,-2777.65,0,0
41239,83.8886,-2686.92,0,0
42540.6,81.5587,-2601.86,0,0
43842.225,80.9462,-2523.77,0,0
45143.85,77.9359,-2449.52,0,0
46445.475,75.4081,-2378.64,0,0
47747.1,74.2533,-2311.41,0,0
49048.725,72.0373,-2248.58,0,0
50350.35,70.379,-2187.6,0,0
51651.975,69.5943,-2129.7,0,0
52953.6,69.1317,-2075.49,0,0
54255.225,67.9252,-2025.44,0,0
55556.85,64.9163,-1976.03,0,0
56858.475,62.6835,-1927.04,0,0
58160.1,61.9118,-1880.27,0,0
59461.7,61.7128,-1836.58,0,0
60763.3,60.2621,-1793.81,0,0
62065,60.1236,-1752.84,0,0
63366.6,60.8395,-1713.06,0,0
64668.2,62.2113,-1677.21,0,0
65969.8,60.9574,-1643.04,0,0
67271.5,58.6571,-1608.33,0,0
68573.1,57.8818,-1574.37,0,0
69874.7,57.7024,-1541.12,0,0
71176.3,57.8945,-1509.69,0,0
72478,58.0823,-1480.23,0,0
73779.6,57.3524,-1450.85,0,0
75081.2,56.7209,-1422.38,0,0
76382.825,56.7244,-1394.29,0,0
77684.45,56.5978,-1367.58,0,0
78986.075,56.2173,-1341.12,0,0
80287.7,56.3926,-1315.02,0,0
81589.325,56.8854,-1289.32,0,0
82890.95,58.4552,-1264.75,0,0
84192.575,60.1787,-1241.33,0,0
85494.2,61.1555,-1220.22,0,0
86795.825,61.0019,-1197.15,0,0
88097.45,62.6552,-1174.58,0,0
89399.075,64.6941,-1153.05,0,0
90700.7,67.8439,-1131.75,0,0
92002.3,72.8054,-1113.43,0,0
93303.9,75.1144,-1098.56,0,0
94605.6,74.1351,-1080.58,0,0
95907.2,76.2549,-1063.17,0,0
97208.8,78.2468,-1046.12,0,0
98510.4,80.7079,-1031.21,0,0
99812.1,80.493,-1017.36,0,0
101114,80.9458,-1002.9,0,0
102415,79.7164,-988.832,0,0
103717,78.2312,-972.748,0,0
105019,78.1456,-957.031,0,0
106320.175,78.9914,-940.764,0,0
107621.8,80.6009,-926.851,0,0
108923.425,80.5921,-912.57,0,0
110225.05,81.6105,-898.416,0,0
111526.675,81.9947,-885.228,0,0
112828.3,82.5335,-871.848,0,0
114129.925,82.8147,-859.052,0,0
115431.55,82.7529,-846.05,0,0
116733.175,82.2062,-833.107,0,0
118034.8,82.5286,-819.181,0,0
119336.425,83.4584,-806.607,0,0
120638.05,82.7787,-793.882,0,0
121939.675,82.9163,-780.73,0,0
123241,83.1792,-767.984,0,0
124543,83.1419,-754.552,0,0
125845,83.9678,-741.575,0,0
127146,84.7094,-728.54,0,0
128448,85.1415,-715.73,0,0
129749,85.5498,-702.742,0,0
131051,86.7644,-689.353,0,0
132353,87.4115,-676.858,0,0
133654,87.9192,-663.253,0,0
134956,89.2286,-648.473,0,0
136258,92.7528,-635.006,0,0
137559,93.9882,-623.675,0,0
138860.775,93.6952,-609.191,0,0
140162.4,95.3972,-593.865,0,0
141464.025,97.906,-578.024,0,0
142765.65,100.826,-561.819,0,0
144067.275,104.716,-544.453,0,0
145368.9,111.292,-525.426,0,0
146670.525,121.016,-508.526,0,0
147972.15,130.757,-494.099,0,0
149273.775,140.442,-475.367,0,0
150575.4,158.08,-457.715,0,0
151877.025,182.287,-448.954,0,0
153178.65,197.621,-451.074,0,0
154480,205.745,-450.041,0,0
155782,216.736,-443.41,0,0
157084,224.19,-451.554,0,0
158385,220.302,-441.512,0,0
159687,232.253,-432.177,0,0
160988,234.477,-429.682,0,0
162290,241.59,-415.435,0,0
163592,257.019,-409.451,0,0
164893,267.639,-411.265,0,0
166195,269.453,-418.404,0,0
167497,260.436,-414.501,0,0
168798,254.319,-400.963,0,0
170100,253.279,-381.854,0,0
171401.375,255.833,-359.955,0,0
172703.0,267.645,-332.236,0,0
174004.625,287.713,-312.952,0,0
175306.25,304.766,-298.736,0,0
176607.875,320.924,-277.127,0,0
177909.5,348.212,-256.528,0,0
179211.125,384.128,-241.537,0,0
180512.75,420.615,-236.544,0,0
181814.375,453.133,-236.641,0,0
183116.0,486.945,-240.211,0,0
184417.625,510.773,-245.493,0,0
185719.25,539.535,-241.83,0,0
187021,579.443,-242.188,0,0
188322,623.932,-249.153,0,0
189624,667.737,-274.581,0,0
190926,697.853,-293.984,0,0
192227,744.215,-317.221,0,0
193529,785.115,-341.448,0,0
194831,851.325,-387.253,0,0
196132,903.86,-468.336,0,0
197434,920.705,-577.216,0,0
198735,894.403,-680.6,0,0
200037,844.658,-762.826,0,0
201339,772.996,-819.135,0,0
202640.35,699.311,-853.552,0,0
203941.975,628.601,-854.145,0,0
205243.6,579.614,-843.516,0,0
206545.225,536.636,-827.264,0,0
207846.85,514.439,-802.993,0,0
209148.475,502.332,-787.538,0,0
210450.1,496.598,-776.062,0,0
211751.725,495.87,-772.69,0,0
213053.35,492.662,-778.608,0,0
214354.975,481.959,-787.032,0,0
215656.6,466.367,-791.483,0,0
216958.225,450.348,-788.167,0,0
218259.85,444.706,-782.788,0,0
219561,440.981,-783.115,0,0
220863,439.747,-787.392,0,0
222165,436.007,-797.033,0,0
223466,427.293,-810.638,0,0
224768,414.895,-821.96,0,0
226070,398.227,-837.39,0,0
227371,373.233,-846.741,0,0
228673,347.11,-847.143,0,0
229974,326.903,-845.858,0,0
231276,303.521,-844.822,0,0
232578,279.011,-838.789,0,0
233879,256.515,-827.744,0,0
235180.95,236.997,-812.752,0,0
236482.575,223.105,-795.477,0,0
237784.2,214,-778.652,0,0
239085.825,209.303,-763.901,0,0
240387.45,206.904,-755.234,0,0
241689.075,199.793,-749.781,0,0
242990.7,189.248,-741.208,0,0
244292.325,180.379,-729.224,0,0
245593.95,173.795,-716.04,0,0
246895.575,170.433,-702.845,0,0
248197.2,167.342,-692.322,0,0
249498.825,163.131,-680.101,0,0
250800,161.797,-665.523,0,0
252102,165.684,-651.193,0,0
253404,172.919,-643.309,0,0
254705,175.439,-638.882,0,0
256007,176.731,-632.077,0,0
257309,179.63,-624.718,0,0
258610,184.454,-617.937,0,0
259912,190.567,-613.141,0,0
261213,196.564,-610.803,0,0
262515,202.189,-610.46,0,0
263817,204.985,-610.862,0,0
265118,206.921,-608.72,0,0
266420,212.823,-604.702,0,0
267721.55,224.681,-603.92,0,0
269023.175,238.828,-612.153,0,0
270324.8,247.598,-629.223,0,0
271626.425,247.589,-651.348,0,0
272928.05,236.663,-672.752,0,0
274229.675,216.539,-688.629,0,0
275531.3,191.442,-692.979,0,0
276832.925,170.914,-688.137,0,0
278134.55,155.037,-680.484,0,0
279436.175,141.746,-670.644,0,0
280737.8,133.383,-658.33,0,0
282039.425,129.717,-647.605,0,0
283341,128.386,-640.338,0,0
284643,125.67,-634.344,0,0
285944,125.152,-627.159,0,0
287246,128.405,-624.309,0,0
288548,128.202,-628.371,0,0
289849,120.609,-631.228,0,0
291151,111.863,-629.509,0,0
292452,103.424,-626.455,0,0
293754,95.0048,-621.171,0,0
295056,87.6323,-614.286,0,0
296357,82.0763,-606.247,0,0
297659,77.9551,-598.524,0,0
298960.525,74.5095,-590.704,0,0
300262.15,71.9882,-582.647,0,0
301563.775,71.0493,-574.546,0,0
302865.4,71.4801,-567.722,0,0
304167.025,72.1523,-562.126,0,0
305468.65,72.9205,-557.251,0,0
306770.275,73.8886,-553.36,0,0
308071.9,74.5601,-550.365,0,0
309373.525,74.6373,-548.7,0,0
310675.15,72.9749,-546.705,0,0
311976.775,71.2095,-544.156,0,0
313278.4,69.1717,-541.452,0,0
314580,66.7547,-538.353,0,0
315882,64.4249,-534.592,0,0
317183,62.6029,-530.247,0,0
318485,61.6662,-526.171,0,0
319787,61.0477,-522.504,0,0
321088,60.4899,-519.643,0,0
322390,59.17,-517.157,0,0
323691,57.6047,-514.639,0,0
324993,55.4174,-512.02,0,0
326295,52.9206,-508.507,0,0
327596,50.9329,-504.629,0,0
328898,49.0995,-500.612,0,0
330200,47.4509,-496.539,0,0
331501.125,45.9636,-492.281,0,0
332802.75,44.7347,-487.826,0,0
334104.375,44.104,-483.179,0,0
335406.0,44.0865,-478.919,0,0
336707.625,44.1401,-475.234,0,0
338009.25,44.1494,-471.997,0,0
339310.875,43.846,-468.995,0,0
340612.5,43.2705,-465.92,0,0
341914.125,42.3954,-462.745,0,0
343215.75,41.645,-459.286,0,0
344517.375,40.997,-455.592,0,0
345819.0,40.6046,-451.897,0,0
347121,40.4396,-448.131,0,0
348422,40.6188,-444.388,0,0
349724,40.9141,-441,0,0
351025,41.3517,-437.72,0,0
352327,41.7372,-434.745,0,0
353629,42.2357,-431.83,0,0
354930,42.6677,-429.163,0,0
356232,43.0073,-426.777,0,0
357534,42.9948,-424.491,0,0
358835,42.7526,-421.998,0,0
360137,42.5726,-419.26,0,0
361438,42.4703,-416.397,0,0
362740.1,42.4563,-413.486,0,0
364041.725,42.6408,-410.526,0,0
365343.35,43.0576,-407.484,0,0
366644.975,43.7832,-404.88,0,0
367946.6,44.2641,-402.433,0,0
369248.225,44.7352,-399.72,0,0
370549.85,45.7775,-397.048,0,0
371851.475,46.9293,-395.147,0,0
373153.1,47.7049,-393.621,0,0
374454.725,48.0249,-392.12,0,0
375756.35,48.2316,-390.443,0,0
377057.975,48.647,-388.682,0,0
378359.6,48.8913,-387.478,0,0
379661,48.2795,-385.955,0,0
380963,48.4945,-383.563,0,0
382264,49.161,-382.553,0,0
383566,48.4237,-381.984,0,0
384868,47.0068,-380.452,0,0
386169,45.6511,-378.113,0,0
387471,44.6777,-375.338,0,0
388773,44.2296,-372.381,0,0
390074,44.2249,-369.493,0,0
391376,44.2876,-366.975,0,0
392677,44.2975,-364.488,0,0
393979,44.2918,-361.878,0,0
395280.7,44.4223,-359.208,0,0
396582.325,44.8061,-356.636,0,0
397883.95,45.2345,-354.355,0,0
399185.575,45.412,-352.134,0,0
400006.6,45.415,-350.653,0,0