Folder: ML_Dmg_Mehdi_Dataset/Accelerated corrosion test data/2025-09-30_18-00-03 (part 3)

File: sample_7.csv
Frequency (Hz),Impedance (ohms),Phase (Radians),Temperature (C),Humidity (%)
10000.0,277.953,-12022,0,0
11301.625,249.664,-10636.2,0,0
12603.25,264.196,-9593.63,0,0
13904.875,212.333,-8701.02,0,0
15206.5,200.44,-7967.19,0,0
16508.125,174.519,-7331.52,0,0
17809.75,172.701,-6779.41,0,0
19111.375,182.637,-6343.48,0,0
20413.0,173.943,-5949.5,0,0
21714.625,157.366,-5607.08,0,0
23016.25,132.652,-5287.97,0,0
24317.875,125.023,-4996.57,0,0
25619.5,121.38,-4734.71,0,0
26921.1,125.527,-4490.7,0,0
28222.7,181.61,-4288.68,0,0
29524.4,136.822,-4145.32,0,0
30826,137.109,-3962.58,0,0
32127.6,119.893,-3819.89,0,0
33429.2,104,-3669.16,0,0
34730.9,95.0241,-3526.03,0,0
36032.5,90.8481,-3393.01,0,0
37334.1,88.3667,-3270.1,0,0
38635.7,88.4531,-3154.22,0,0
39937.4,98.7215,-3054.36,0,0
41239,88.6151,-2966.96,0,0
42540.6,82.0217,-2871.48,0,0
43842.225,81.3823,-2783.11,0,0
45143.85,82.3675,-2706.49,0,0
46445.475,79.2184,-2633.56,0,0
47747.1,72.8151,-2558.22,0,0
49048.725,70.2017,-2488.41,0,0
50350.35,68.1594,-2421.6,0,0
51651.975,66.4933,-2358.45,0,0
52953.6,65.5857,-2298.18,0,0
54255.225,64.2735,-2241.78,0,0
55556.85,63.2986,-2187.07,0,0
56858.475,62.5065,-2135.21,0,0
58160.1,61.7577,-2084.93,0,0
59461.7,61.7896,-2037.91,0,0
60763.3,61.3517,-1994.29,0,0
62065,59.3925,-1951.23,0,0
63366.6,58.3296,-1908.94,0,0
64668.2,57.2236,-1868.42,0,0
65969.8,57.2942,-1830.14,0,0
67271.5,55.5087,-1793.52,0,0
68573.1,54.4296,-1757.05,0,0
69874.7,54.044,-1721.87,0,0
71176.3,53.5835,-1688.53,0,0
72478,52.6333,-1656.29,0,0
73779.6,51.7248,-1624.59,0,0
75081.2,51.2319,-1594.04,0,0
76382.825,50.7787,-1564.32,0,0
77684.45,50.4566,-1535.6,0,0
78986.075,50.1915,-1507.75,0,0
80287.7,49.9864,-1480.79,0,0
81589.325,49.7367,-1454.61,0,0
82890.95,49.694,-1429.22,0,0
84192.575,49.6265,-1404.21,0,0
85494.2,49.8816,-1380.27,0,0
86795.825,49.9845,-1357,0,0
88097.45,50.2109,-1334.13,0,0
89399.075,50.0843,-1312.21,0,0
90700.7,50.5559,-1290.36,0,0
92002.3,50.9916,-1269.2,0,0
93303.9,51.1456,-1248.66,0,0
94605.6,53.0192,-1228.89,0,0
95907.2,52.5312,-1210.58,0,0
97208.8,52.2014,-1191.11,0,0
98510.4,53.1536,-1171.78,0,0
99812.1,52.9968,-1153.39,0,0
101114,54.0494,-1134.63,0,0
102415,55.4979,-1116.8,0,0
103717,58.4828,-1099.94,0,0
105019,59.5434,-1085.07,0,0
106320.175,59.0176,-1069.39,0,0
107621.8,60.2674,-1052.9,0,0
108923.425,60.8274,-1037.64,0,0
110225.05,61.1254,-1021.05,0,0
111526.675,64.0169,-1004.04,0,0
112828.3,68.0898,-987.934,0,0
114129.925,73.0842,-974.868,0,0
115431.55,77.9472,-962.24,0,0
116733.175,85.0546,-952.418,0,0
118034.8,87.7634,-947.456,0,0
119336.425,90.0898,-942.075,0,0
120638.05,84.858,-940.78,0,0
121939.675,75.0893,-930.677,0,0
123241,68.7962,-917.218,0,0
124543,64.8079,-902.516,0,0
125845,61.4308,-889.144,0,0
127146,58.6362,-874.688,0,0
128448,56.8218,-859.926,0,0
129749,55.6647,-845.274,0,0
131051,55.0625,-830.792,0,0
132353,54.4617,-815.763,0,0
133654,55.3107,-800.288,0,0
134956,58.145,-785.354,0,0
136258,63.0017,-773.263,0,0
137559,64.0173,-764.414,0,0
138860.775,62.674,-753.34,0,0
140162.4,62.5447,-739.932,0,0
141464.025,62.9767,-727.019,0,0
142765.65,63.7131,-713.172,0,0
144067.275,65.8319,-699.58,0,0
145368.9,67.846,-687.022,0,0
146670.525,68.917,-673.68,0,0
147972.15,70.8808,-660.085,0,0
149273.775,72.5607,-646.827,0,0
150575.4,73.8297,-631.37,0,0
151877.025,76.6242,-614.366,0,0
153178.65,82.0146,-596.612,0,0
154480,89.2233,-579.253,0,0
155782,99.0581,-562.663,0,0
157084,110.67,-548.31,0,0
158385,121.878,-536.967,0,0
159687,129.549,-527.139,0,0
160988,133.746,-509.852,0,0
162290,145.578,-485.823,0,0
163592,166.12,-462.486,0,0
164893,195.647,-443.904,0,0
166195,227.704,-428.719,0,0
167497,275.777,-421.039,0,0
168798,326.58,-435.053,0,0
170100,366.567,-467.39,0,0
171401.375,395.83,-516.897,0,0
172703.0,399.202,-569.056,0,0
174004.625,373.743,-613.986,0,0
175306.25,338.863,-631.949,0,0
176607.875,319.864,-621.834,0,0
177909.5,327.296,-628.48,0,0
179211.125,320.562,-664.294,0,0
180512.75,283.337,-680.913,0,0
181814.375,248.074,-687.674,0,0
183116.0,209.817,-674.126,0,0
184417.625,183.8,-651.214,0,0
185719.25,170.185,-628.053,0,0
187021,157.128,-603.513,0,0
188322,154.702,-578.166,0,0
189624,150.103,-562.342,0,0
190926,144.584,-539.575,0,0
192227,145.557,-513.937,0,0
193529,149.824,-490.074,0,0
194831,157.797,-466.304,0,0
196132,169.712,-444.833,0,0
197434,183.456,-425.996,0,0
198735,197.716,-407.432,0,0
200037,214.13,-388.445,0,0
201339,236.194,-369.635,0,0
202640.35,264.33,-352.245,0,0
203941.975,298.27,-342.187,0,0
205243.6,333.706,-341.135,0,0
206545.225,368.768,-349.453,0,0
207846.85,391.335,-362.278,0,0
209148.475,420.415,-358.218,0,0
210450.1,471.795,-380.579,0,0
211751.725,503,-430.686,0,0
213053.35,508.05,-476.156,0,0
214354.975,502.651,-519.142,0,0
215656.6,483.46,-548.969,0,0
216958.225,469.371,-571.674,0,0
218259.85,446.116,-592.747,0,0
219561,417.841,-601.589,0,0
220863,394.247,-592.907,0,0
222165,384.884,-578.802,0,0
223466,386.978,-568.188,0,0
224768,393.314,-561.205,0,0
226070,407.958,-557.447,0,0
227371,425.795,-567.718,0,0
228673,441.861,-585.639,0,0
229974,448.94,-616.985,0,0
231276,442.594,-651.405,0,0
232578,424.87,-680.359,0,0
233879,397.502,-709.895,0,0
235180.95,350.912,-722.665,0,0
236482.575,313.974,-708.883,0,0
237784.2,292.761,-696.183,0,0
239085.825,270.975,-677.545,0,0
240387.45,266.569,-656.974,0,0
241689.075,263.677,-650.087,0,0
242990.7,252.889,-641.947,0,0
244292.325,246.785,-624.682,0,0
245593.95,253.277,-609.528,0,0
246895.575,259.431,-605.697,0,0
248197.2,261.796,-603.537,0,0
249498.825,264.07,-601.812,0,0
250800,265.66,-602.429,0,0
252102,266.717,-603.177,0,0
253404,265.713,-606.762,0,0
254705,261.466,-611.66,0,0
256007,252.017,-613.327,0,0
257309,242.755,-609.517,0,0
258610,235.03,-602.208,0,0
259912,231.3,-592.707,0,0
261213,230.639,-581.717,0,0
262515,237.353,-569.729,0,0
263817,252.048,-566.455,0,0
265118,261.66,-574.687,0,0
266420,264.428,-582.168,0,0
267721.55,266.502,-590.364,0,0
269023.175,264.001,-598.717,0,0
270324.8,263.02,-603.833,0,0
271626.425,264.74,-613.546,0,0
272928.05,263.59,-634.669,0,0
274229.675,242.182,-658.982,0,0
275531.3,206.976,-665.953,0,0
276832.925,174.274,-655.728,0,0
278134.55,151.752,-634.403,0,0
279436.175,142.2,-611.103,0,0
280737.8,140.255,-592.312,0,0
282039.425,140.548,-579.534,0,0
283341,138.509,-568.2,0,0
284643,137.85,-554.127,0,0
285944,142.026,-541.679,0,0
287246,146.827,-532.904,0,0
288548,149.867,-524.968,0,0
289849,154.697,-515.554,0,0
291151,161.806,-507.866,0,0
292452,169.497,-502.645,0,0
293754,176.897,-498.527,0,0
295056,184.74,-494.478,0,0
296357,195.013,-490.81,0,0
297659,207.828,-490.275,0,0
298960.525,221.543,-493.949,0,0
300262.15,235.329,-501.817,0,0
301563.775,249.541,-515.997,0,0
302865.4,258.471,-541.102,0,0
304167.025,250.103,-568.523,0,0
305468.65,233.491,-587.004,0,0
306770.275,213.208,-597.762,0,0
308071.9,192.961,-600.706,0,0
309373.525,175.228,-598.306,0,0
310675.15,161.419,-592.77,0,0
311976.775,150.621,-586.365,0,0
313278.4,141.782,-580.35,0,0
314580,133.479,-573.639,0,0
315882,127.222,-565.767,0,0
317183,123.14,-558.39,0,0
318485,119.924,-551.955,0,0
319787,117.786,-545.838,0,0
321088,116.718,-541.419,0,0
322390,114.771,-538.4,0,0
323691,112.046,-535.37,0,0
324993,109.01,-531.941,0,0
326295,106.376,-528.29,0,0
327596,103.815,-525.075,0,0
328898,100.826,-522.201,0,0
330200,97.6279,-518.777,0,0
331501.125,94.5673,-515.566,0,0
332802.75,90.6713,-512.589,0,0
334104.375,86.0533,-508.331,0,0
335406.0,81.9958,-502.888,0,0
336707.625,78.6512,-496.815,0,0
338009.25,76.1781,-490.427,0,0
339310.875,74.6275,-484.065,0,0
340612.5,73.5529,-477.84,0,0
341914.125,73.0495,-471.686,0,0
343215.75,73.1945,-465.804,0,0
344517.375,74.0908,-460.383,0,0
345819.0,75.2786,-455.967,0,0
347121,76.1568,-452.42,0,0
348422,76.1146,-449.254,0,0
349724,75.4794,-445.382,0,0
351025,75.0362,-440.865,0,0
352327,75.4951,-435.701,0,0
353629,77.0542,-431.006,0,0
354930,79.2492,-427.409,0,0
356232,80.8524,-425.323,0,0
357534,80.9775,-423.52,0,0
358835,79.9095,-420.816,0,0
360137,79.045,-416.205,0,0
361438,79.9107,-411.074,0,0
362740.1,81.6888,-406.593,0,0
364041.725,83.8695,-402.749,0,0
365343.35,86.5229,-399.424,0,0
366644.975,89.2767,-397.278,0,0
367946.6,91.3422,-395.492,0,0
369248.225,93.5713,-394.229,0,0
370549.85,94.4246,-394.313,0,0
371851.475,92.9566,-393.268,0,0
373153.1,91.7656,-389.629,0,0
374454.725,92.3418,-385.406,0,0
375756.35,93.7173,-381.532,0,0
377057.975,95.4785,-378.051,0,0
378359.6,97.2868,-374.562,0,0
379661,99.9281,-370.862,0,0
380963,103.173,-368.018,0,0
382264,106.447,-365.619,0,0
383566,110.015,-363.827,0,0
384868,113.292,-362.66,0,0
386169,116.062,-361.715,0,0
387471,118.732,-360.346,0,0
388773,121.614,-358.914,0,0
390074,125.148,-357.375,0,0
391376,129.35,-356.488,0,0
392677,133.498,-356.118,0,0
393979,138.342,-356.05,0,0
395280.7,143.861,-357.036,0,0
396582.325,149.583,-359.718,0,0
397883.95,155.174,-364.174,0,0
399185.575,159.388,-371.383,0,0
400006.6,160.252,-376.96,0,0

File: sample_8.csv
Frequency (Hz),Impedance (ohms),Phase (Radians),Temperature (C),Humidity (%)
10000.0,322.622,-10874.6,0,0
11301.625,285.196,-9638.22,0,0
12603.25,261.595,-8655.79,0,0
13904.875,232.726,-7861.21,0,0
15206.5,211.476,-7194.38,0,0
16508.125,195.112,-6632.93,0,0
17809.75,181.556,-6151.23,0,0
19111.375,171.877,-5732.89,0,0
20413.0,163.952,-5373.11,0,0
21714.625,154.692,-5054.67,0,0
23016.25,147.903,-4774.68,0,0
24317.875,137.61,-4520.26,0,0
25619.5,130.698,-4289.84,0,0
26921.1,124.852,-4081.05,0,0
28222.7,120.988,-3892.25,0,0
29524.4,118.238,-3720.81,0,0
30826,115.749,-3564.54,0,0
32127.6,113.098,-3419.63,0,0
33429.2,113.528,-3285.35,0,0
34730.9,111.705,-3166.93,0,0
36032.5,108.181,-3057.09,0,0
37334.1,101.86,-2952.68,0,0
38635.7,94.7357,-2853.07,0,0
39937.4,89.339,-2757.92,0,0
41239,86.5251,-2667.94,0,0
42540.6,84.081,-2583.65,0,0
43842.225,83.2847,-2506.13,0,0
45143.85,80.0126,-2432.46,0,0
46445.475,77.712,-2361.95,0,0
47747.1,76.1988,-2295.53,0,0
49048.725,74.0913,-2233.03,0,0
50350.35,72.1663,-2172.59,0,0
51651.975,71.1046,-2114.98,0,0
52953.6,70.6782,-2060.98,0,0
54255.225,69.6832,-2011.31,0,0
55556.85,66.2867,-1962.14,0,0
56858.475,64.1799,-1913.5,0,0
58160.1,63.345,-1867.08,0,0
59461.7,63.3131,-1823.45,0,0
60763.3,61.7743,-1781.45,0,0
62065,61.6208,-1740.53,0,0
63366.6,61.6836,-1701.06,0,0
64668.2,63.2455,-1664.36,0,0
65969.8,62.728,-1631.37,0,0
67271.5,60.1445,-1597,0,0
68573.1,59.2055,-1562.91,0,0
69874.7,58.8761,-1530.01,0,0
71176.3,59.4617,-1498.66,0,0
72478,59.9459,-1469.03,0,0
73779.6,59.0226,-1440.4,0,0
75081.2,58.5759,-1412.19,0,0
76382.825,58.5334,-1384.45,0,0
77684.45,58.3746,-1357.98,0,0
78986.075,57.9799,-1331.83,0,0
80287.7,57.9502,-1305.87,0,0
81589.325,58.3334,-1280.69,0,0
82890.95,59.3701,-1255.66,0,0
84192.575,61.4263,-1232.09,0,0
85494.2,63.1582,-1210.47,0,0
86795.825,63.0661,-1188.94,0,0
88097.45,64.3166,-1166.68,0,0
89399.075,66.8906,-1145.29,0,0
90700.7,69.2351,-1124.87,0,0
92002.3,73.5478,-1105.4,0,0
93303.9,77.2032,-1090.68,0,0
94605.6,75.5573,-1075.63,0,0
95907.2,76.6577,-1057.17,0,0
97208.8,77.4074,-1039.97,0,0
98510.4,79.6343,-1024.37,0,0
99812.1,80.105,-1010.17,0,0
101114,80.772,-995.17,0,0
102415,79.9623,-980.195,0,0
103717,80.4918,-965.342,0,0
105019,79.8456,-950.595,0,0
106320.175,80.1739,-935.722,0,0
107621.8,80.4145,-921.545,0,0
108923.425,80.4502,-907.093,0,0
110225.05,81.2912,-893.574,0,0
111526.675,81.1749,-880.662,0,0
112828.3,80.8527,-867.175,0,0
114129.925,80.5666,-853.793,0,0
115431.55,79.95,-840.834,0,0
116733.175,79.0868,-827.409,0,0
118034.8,78.3416,-813.444,0,0
119336.425,78.5329,-799.329,0,0
120638.05,78.4356,-785.88,0,0
121939.675,78.6814,-771.72,0,0
123241,79.238,-758.094,0,0
124543,79.695,-743.939,0,0
125845,81.3814,-730.293,0,0
127146,83.1369,-717.188,0,0
128448,84.5757,-705.097,0,0
129749,84.6797,-692.668,0,0
131051,84.3317,-678.711,0,0
132353,87.1101,-663.831,0,0
133654,89.5885,-650.097,0,0
134956,92.3743,-637.782,0,0
136258,94.7669,-625.432,0,0
137559,96.6411,-613.569,0,0
138860.775,95.6771,-600.737,0,0
140162.4,96.7689,-585.116,0,0
141464.025,98.6605,-569.213,0,0
142765.65,101.853,-552.353,0,0
144067.275,105.66,-534.985,0,0
145368.9,112.664,-515.485,0,0
146670.525,124.008,-498.845,0,0
147972.15,134.426,-486.098,0,0
149273.775,140.507,-470.149,0,0
150575.4,155.661,-450.989,0,0
151877.025,177.036,-437.951,0,0
153178.65,194.609,-439.155,0,0
154480,202.066,-436.703,0,0
155782,210.656,-427.271,0,0
157084,224.207,-428.14,0,0
158385,222.214,-418.79,0,0
159687,238.309,-403.211,0,0
160988,251.039,-407.6,0,0
162290,257.714,-397.305,0,0
163592,274.238,-394.929,0,0
164893,282.404,-401.899,0,0
166195,283.802,-404.184,0,0
167497,275.136,-404.286,0,0
168798,265.989,-388.652,0,0
170100,267.561,-365.807,0,0
171401.375,275.215,-343.426,0,0
172703.0,290.279,-319.895,0,0
174004.625,311.548,-301.856,0,0
175306.25,333.177,-290.234,0,0
176607.875,350.839,-276.495,0,0
177909.5,376.509,-261.352,0,0
179211.125,405.893,-248.688,0,0
180512.75,438.326,-242.186,0,0
181814.375,472.228,-239.157,0,0
183116.0,506.578,-240.366,0,0
184417.625,537.938,-244.821,0,0
185719.25,569.537,-249.88,0,0
187021,610.146,-252.095,0,0
188322,655.114,-264.241,0,0
189624,701.739,-293.856,0,0
190926,733.506,-321.472,0,0
192227,783.658,-347.639,0,0
193529,829.017,-403.647,0,0
194831,871.073,-470.315,0,0
196132,884.729,-560.392,0,0
197434,873.579,-655.159,0,0
198735,824.746,-733.433,0,0
200037,769.487,-788.787,0,0
201339,699.139,-821.605,0,0
202640.35,643.099,-833.468,0,0
203941.975,586.769,-833.934,0,0
205243.6,542.264,-819.228,0,0
206545.225,510.183,-800.89,0,0
207846.85,490.489,-777.211,0,0
209148.475,483.371,-761.059,0,0
210450.1,478.913,-747.614,0,0
211751.725,483.203,-739.609,0,0
213053.35,489.577,-742.006,0,0
214354.975,488.771,-755.488,0,0
215656.6,475.395,-765.057,0,0
216958.225,462.422,-763.391,0,0
218259.85,461.591,-758.794,0,0
219561,466.968,-765.114,0,0
220863,468.271,-779.879,0,0
222165,463.842,-801.023,0,0
223466,447.312,-824.158,0,0
224768,423.969,-838.768,0,0
226070,399.138,-849.897,0,0
227371,370.141,-855.061,0,0
228673,343.325,-853.352,0,0
229974,320.21,-848.588,0,0
231276,297.553,-843.45,0,0
232578,275.61,-835.157,0,0
233879,254.557,-823.789,0,0
235180.95,236.704,-809.126,0,0
236482.575,222.918,-792.478,0,0
237784.2,214.492,-776.448,0,0
239085.825,208.154,-763.562,0,0
240387.45,202.574,-752.909,0,0
241689.075,195.58,-743.682,0,0
242990.7,187.621,-732.579,0,0
244292.325,181.57,-720.038,0,0
245593.95,177.181,-708.573,0,0
246895.575,172.956,-695.438,0,0
248197.2,171.986,-683.058,0,0
249498.825,171.008,-672.113,0,0
250800,171.325,-659.732,0,0
252102,175.396,-647.708,0,0
253404,182.125,-641.02,0,0
254705,184.595,-636.69,0,0
256007,186.915,-629.634,0,0
257309,192.573,-623.833,0,0
258610,198.338,-620.056,0,0
259912,204.482,-619.002,0,0
261213,208.766,-619.609,0,0
262515,211.783,-621.522,0,0
263817,212.193,-621.581,0,0
265118,214.259,-619.939,0,0
266420,220.44,-617.853,0,0
267721.55,230.813,-620.967,0,0
269023.175,240.41,-632.509,0,0
270324.8,243.149,-651.045,0,0
271626.425,236.622,-670.123,0,0
272928.05,222.458,-687.793,0,0
274229.675,199.286,-698.016,0,0
275531.3,175.748,-697.621,0,0
276832.925,156.477,-689.732,0,0
278134.55,143.05,-679.94,0,0
279436.175,132.58,-669.411,0,0
280737.8,125.477,-658.046,0,0
282039.425,122.101,-648.779,0,0
283341,119.058,-640.741,0,0
284643,117.296,-633.347,0,0
285944,117.428,-627.286,0,0
287246,118.993,-625.057,0,0
288548,116.625,-626.575,0,0
289849,110.541,-626.421,0,0
291151,103.632,-624.09,0,0
292452,96.8301,-620.921,0,0
293754,88.8725,-616.084,0,0
295056,82.165,-608.833,0,0
296357,77.2502,-601.177,0,0
297659,73.4,-593.325,0,0
298960.525,70.6227,-585.475,0,0
300262.15,68.9835,-577.822,0,0
301563.775,68.0276,-570.704,0,0
302865.4,68.1628,-563.938,0,0
304167.025,69.0034,-558.427,0,0
305468.65,69.5991,-554.123,0,0
306770.275,69.8999,-550.106,0,0
308071.9,70.2478,-546.902,0,0
309373.525,69.9785,-544.367,0,0
310675.15,68.6703,-541.885,0,0
311976.775,67.2835,-538.884,0,0
313278.4,65.6186,-535.961,0,0
314580,63.6428,-532.761,0,0
315882,61.5742,-528.704,0,0
317183,60.4047,-524.231,0,0
318485,60.1129,-520.296,0,0
319787,59.8576,-517.092,0,0
321088,59.3431,-514.453,0,0
322390,58.2499,-512.245,0,0
323691,56.6061,-509.635,0,0
324993,54.6543,-507.119,0,0
326295,52.306,-503.869,0,0
327596,50.3063,-500.183,0,0
328898,48.4881,-496.224,0,0
330200,46.9143,-492.106,0,0
331501.125,45.7016,-487.845,0,0
332802.75,44.6728,-483.602,0,0
334104.375,44.0318,-479.305,0,0
335406.0,43.8517,-475.132,0,0
336707.625,43.8006,-471.539,0,0
338009.25,43.7799,-468.216,0,0
339310.875,43.5121,-465.106,0,0
340612.5,43.0324,-462.034,0,0
341914.125,42.3395,-458.929,0,0
343215.75,41.6204,-455.607,0,0
344517.375,40.9736,-452.07,0,0
345819.0,40.5547,-448.371,0,0
347121,40.3041,-444.621,0,0
348422,40.4757,-440.989,0,0
349724,40.759,-437.436,0,0
351025,41.2721,-434.235,0,0
352327,41.7611,-431.237,0,0
353629,42.085,-428.439,0,0
354930,42.5009,-425.621,0,0
356232,42.88,-423.092,0,0
357534,43.0393,-420.723,0,0
358835,42.9246,-418.221,0,0
360137,42.7923,-415.427,0,0
361438,42.799,-412.5,0,0
362740.1,42.9299,-409.489,0,0
364041.725,43.3092,-406.43,0,0
365343.35,44.1256,-403.412,0,0
366644.975,45.1118,-400.733,0,0
367946.6,46.1073,-398.446,0,0
369248.225,47.0131,-396.233,0,0
370549.85,48.1761,-394.17,0,0
371851.475,49.3932,-392.715,0,0
373153.1,50.0804,-391.759,0,0
374454.725,50.0126,-390.771,0,0
375756.35,49.7249,-389.17,0,0
377057.975,49.7665,-387.473,0,0
378359.6,49.7659,-386.119,0,0
379661,49.2699,-384.324,0,0
380963,49.7028,-382.31,0,0
382264,50.1104,-381.98,0,0
383566,48.4331,-381.29,0,0
384868,46.6605,-379.179,0,0
386169,45.4343,-376.444,0,0
387471,44.6675,-373.45,0,0
388773,44.3849,-370.405,0,0
390074,44.5147,-367.553,0,0
391376,44.6611,-365.109,0,0
392677,44.6548,-362.709,0,0
393979,44.6155,-360.237,0,0
395280.7,44.6715,-357.58,0,0
396582.325,44.9389,-355.028,0,0
397883.95,45.3026,-352.552,0,0
399185.575,45.579,-350.264,0,0
400006.6,45.6799,-348.776,0,0