Folder: ML_Dmg_Mehdi_Dataset/Accelerated corrosion test data/2025-10-03_18-00-02 (part 3)

File: sample_6.csv
Frequency (Hz),Impedance (ohms),Phase (Radians),Temperature (C),Humidity (%)
10000.0,4307.09,-6204.8,0,0
11301.625,3690.76,-5884.84,0,0
12603.25,3194.28,-5567.8,0,0
13904.875,2788.84,-5273.07,0,0
15206.5,2454.64,-4992,0,0
16508.125,2176.05,-4731.97,0,0
17809.75,1942.53,-4492.02,0,0
19111.375,1746.7,-4269.99,0,0
20413.0,1577.5,-4067.89,0,0
21714.625,1432.06,-3878.46,0,0
23016.25,1311.26,-3699.49,0,0
24317.875,1201.53,-3547.81,0,0
25619.5,1104.51,-3398.88,0,0
26921.1,1019.62,-3259.1,0,0
28222.7,947.115,-3132.35,0,0
29524.4,880.515,-3010.83,0,0
30826,822.693,-2900.22,0,0
32127.6,770.945,-2793.22,0,0
33429.2,729.526,-2695.87,0,0
34730.9,687.818,-2607.88,0,0
36032.5,652.25,-2526.7,0,0
37334.1,614.87,-2450.01,0,0
38635.7,579.475,-2374.45,0,0
39937.4,549.27,-2301.4,0,0
41239,521.011,-2232.02,0,0
42540.6,497.495,-2167.79,0,0
43842.225,476.313,-2102.76,0,0
45143.85,459.127,-2041.81,0,0
46445.475,447.264,-1988.73,0,0
47747.1,434.102,-1941.08,0,0
49048.725,422.486,-1898.18,0,0
50350.35,403.444,-1863.32,0,0
51651.975,380.319,-1820.83,0,0
52953.6,363.035,-1777.5,0,0
54255.225,344.762,-1736.25,0,0
55556.85,327.823,-1695.05,0,0
56858.475,314.973,-1649.62,0,0
58160.1,308.954,-1612.28,0,0
59461.7,299.026,-1579.52,0,0
60763.3,286.577,-1546.25,0,0
62065,273.975,-1511.12,0,0
63366.6,269.09,-1474.62,0,0
64668.2,262.191,-1448.86,0,0
65969.8,252.752,-1419.32,0,0
67271.5,241.555,-1390.72,0,0
68573.1,232.208,-1358.73,0,0
69874.7,225.226,-1327.08,0,0
71176.3,221.318,-1295.89,0,0
72478,219.542,-1267.32,0,0
73779.6,219.049,-1241.91,0,0
75081.2,217.425,-1218.1,0,0
76382.825,216.094,-1195.78,0,0
77684.45,214.535,-1174.12,0,0
78986.075,213.442,-1154.08,0,0
80287.7,211.733,-1135.53,0,0
81589.325,208.806,-1117.81,0,0
82890.95,205.068,-1100.18,0,0
84192.575,200.487,-1081.78,0,0
85494.2,197.09,-1062.04,0,0
86795.825,195.511,-1043.27,0,0
88097.45,193.635,-1025.78,0,0
89399.075,192.521,-1008.56,0,0
90700.7,191.82,-992.662,0,0
92002.3,189.291,-977.568,0,0
93303.9,187.597,-961.425,0,0
94605.6,187.545,-943.867,0,0
95907.2,188.65,-930.453,0,0
97208.8,187.526,-918.579,0,0
98510.4,186.123,-902.229,0,0
99812.1,191.976,-890.819,0,0
101114,190.594,-885.385,0,0
102415,187.365,-875.263,0,0
103717,183.17,-869.523,0,0
105019,171.159,-861.495,0,0
106320.175,158.462,-841.6,0,0
107621.8,155.908,-818.958,0,0
108923.425,158.491,-800.876,0,0
110225.05,160.744,-785.203,0,0
111526.675,163.68,-770.54,0,0
112828.3,167.165,-757.771,0,0
114129.925,171.455,-746.714,0,0
115431.55,174.234,-737.246,0,0
116733.175,178.135,-729.278,0,0
118034.8,176.147,-722.868,0,0
119336.425,176.156,-710.316,0,0
120638.05,183.101,-698.548,0,0
121939.675,186.402,-698.949,0,0
123241,182.323,-693.933,0,0
124543,179.837,-687.177,0,0
125845,176.149,-679.399,0,0
127146,172.337,-670.123,0,0
128448,171.699,-658.151,0,0
129749,174.05,-650.307,0,0
131051,173.832,-644.942,0,0
132353,171.402,-639.803,0,0
133654,166.645,-634.116,0,0
134956,160.303,-625.638,0,0
136258,154.527,-614.66,0,0
137559,150.324,-602.177,0,0
138860.775,147.557,-588.886,0,0
140162.4,146.148,-575.211,0,0
141464.025,146.524,-561.609,0,0
142765.65,147.327,-549.415,0,0
144067.275,149.313,-536.17,0,0
145368.9,153.254,-526.063,0,0
146670.525,153.94,-517.303,0,0
147972.15,153.431,-507.108,0,0
149273.775,152.916,-494.788,0,0
150575.4,153.398,-480.15,0,0
151877.025,157.385,-463.58,0,0
153178.65,167.94,-450.55,0,0
154480,174.296,-443.464,0,0
155782,179.809,-432,0,0
157084,190.66,-424.578,0,0
158385,195.669,-422.027,0,0
159687,197.79,-416.771,0,0
160988,200.093,-410.093,0,0
162290,201.628,-403.56,0,0
163592,202.7,-395.066,0,0
164893,202.501,-385.352,0,0
166195,204.952,-373.005,0,0
167497,208.604,-361.717,0,0
168798,212.825,-349.898,0,0
170100,217.959,-338.863,0,0
171401.375,222.098,-327.232,0,0
172703.0,226.915,-314.805,0,0
174004.625,231.328,-301.511,0,0
175306.25,236.298,-285.631,0,0
176607.875,243.606,-267.503,0,0
177909.5,254.14,-247.678,0,0
179211.125,268.915,-226.768,0,0
180512.75,289.424,-208.238,0,0
181814.375,312.301,-193.693,0,0
183116.0,335.659,-183.082,0,0
184417.625,358.871,-174.518,0,0
185719.25,379.527,-169.625,0,0
187021,394.404,-162.615,0,0
188322,407.287,-145.721,0,0
189624,428.474,-118.411,0,0
190926,466.977,-85.5905,0,0
192227,523.739,-61.7999,0,0
193529,588.985,-48.5876,0,0
194831,667.808,-49.3873,0,0
196132,749.904,-72.6244,0,0
197434,828.506,-115.351,0,0
198735,900.485,-173.267,0,0
200037,964.864,-250.554,0,0
201339,1015.85,-345.636,0,0
202640.35,1041.73,-464.07,0,0
203941.975,1025.38,-582.096,0,0
205243.6,982.706,-681.964,0,0
206545.225,921.647,-761.241,0,0
207846.85,854.444,-817.191,0,0
209148.475,789.602,-854.42,0,0
210450.1,732.052,-882.03,0,0
211751.725,675.547,-909.07,0,0
213053.35,609.641,-926.533,0,0
214354.975,545.974,-927.167,0,0
215656.6,490.665,-916.653,0,0
216958.225,444.47,-900.931,0,0
218259.85,405.341,-882.382,0,0
219561,372.332,-862.304,0,0
220863,344.437,-841.38,0,0
222165,320.443,-819.953,0,0
223466,300.64,-797.319,0,0
224768,286.124,-774.096,0,0
226070,277.756,-751.591,0,0
227371,275.491,-733.655,0,0
228673,274.633,-723.636,0,0
229974,269.431,-718.845,0,0
231276,258.691,-712.871,0,0
232578,246.66,-703.017,0,0
233879,236.213,-690.006,0,0
235180.95,228.686,-675.313,0,0
236482.575,223.891,-660.934,0,0
237784.2,221.107,-646.966,0,0
239085.825,220.121,-633.717,0,0
240387.45,220.489,-621.564,0,0
241689.075,222.02,-610.043,0,0
242990.7,224.753,-599.224,0,0
244292.325,228.844,-589.171,0,0
245593.95,234.181,-579.57,0,0
246895.575,242.065,-570.65,0,0
248197.2,253.345,-564.301,0,0
249498.825,265.307,-563.005,0,0
250800,275.33,-563.726,0,0
252102,288.246,-565.169,0,0
253404,303.862,-573.894,0,0
254705,315.778,-591.739,0,0
256007,318.323,-614.685,0,0
257309,311.571,-636.866,0,0
258610,298.222,-654.951,0,0
259912,280.883,-667.96,0,0
261213,261.51,-675.618,0,0
262515,242.642,-678.007,0,0
263817,225.49,-677.201,0,0
265118,209.98,-674.19,0,0
266420,195.839,-669.634,0,0
267721.55,183.476,-663.974,0,0
269023.175,172.491,-657.666,0,0
270324.8,162.581,-651.199,0,0
271626.425,153.478,-644.323,0,0
272928.05,145.273,-637.351,0,0
274229.675,137.651,-629.924,0,0
275531.3,130.896,-622.325,0,0
276832.925,124.909,-614.61,0,0
278134.55,119.606,-606.838,0,0
279436.175,115.083,-598.802,0,0
280737.8,111.9,-590.859,0,0
282039.425,109.629,-584.008,0,0
283341,107.096,-577.757,0,0
284643,104.867,-571.547,0,0
285944,103.295,-565.646,0,0
287246,101.839,-560.71,0,0
288548,99.777,-555.805,0,0
289849,98.1423,-550.967,0,0
291151,96.6513,-546.43,0,0
292452,95.2777,-542.317,0,0
293754,93.6323,-538.775,0,0
295056,91.1369,-535.485,0,0
296357,87.9927,-531.468,0,0
297659,84.7909,-526.19,0,0
298960.525,83.169,-520.164,0,0
300262.15,82.7209,-515.034,0,0
301563.775,82.2641,-510.77,0,0
302865.4,81.4703,-506.951,0,0
304167.025,80.5033,-503.037,0,0
305468.65,79.8149,-498.809,0,0
306770.275,80.0636,-495.279,0,0
308071.9,79.7715,-492.794,0,0
309373.525,78.71,-490.395,0,0
310675.15,77.408,-487.781,0,0
311976.775,75.8867,-485.091,0,0
313278.4,74.1414,-482.138,0,0
314580,72.573,-478.98,0,0
315882,71.1119,-475.758,0,0
317183,69.6966,-472.625,0,0
318485,68.2747,-469.436,0,0
319787,66.7036,-466.222,0,0
321088,65.2115,-462.785,0,0
322390,63.964,-459.187,0,0
323691,62.9379,-455.769,0,0
324993,61.9017,-452.453,0,0
326295,60.8399,-449.159,0,0
327596,59.8165,-445.794,0,0
328898,58.8853,-442.42,0,0
330200,58.0551,-439.061,0,0
331501.125,57.3039,-435.732,0,0
332802.75,56.5313,-432.366,0,0
334104.375,55.9055,-428.984,0,0
335406.0,55.5149,-425.658,0,0
336707.625,55.1067,-422.47,0,0
338009.25,54.725,-419.402,0,0
339310.875,54.3797,-416.316,0,0
340612.5,54.1446,-413.136,0,0
341914.125,53.9782,-410.114,0,0
343215.75,54.1764,-407.266,0,0
344517.375,54.1572,-405.05,0,0
345819.0,53.4473,-402.699,0,0
347121,52.8048,-399.872,0,0
348422,52.4171,-396.914,0,0
349724,52.2016,-394.061,0,0
351025,52.0342,-391.202,0,0
352327,52.0661,-388.511,0,0
353629,52.122,-385.921,0,0
354930,52.0793,-383.491,0,0
356232,51.9032,-381.004,0,0
357534,51.8308,-378.453,0,0
358835,51.9839,-376.029,0,0
360137,52.0822,-373.88,0,0
361438,51.9823,-371.816,0,0
362740.1,51.6538,-369.768,0,0
364041.725,51.2717,-367.471,0,0
365343.35,50.9449,-365.172,0,0
366644.975,50.7358,-362.746,0,0
367946.6,50.565,-360.381,0,0
369248.225,50.4079,-357.96,0,0
370549.85,50.3624,-355.561,0,0
371851.475,50.4692,-353.191,0,0
373153.1,50.7673,-351.072,0,0
374454.725,50.8579,-349.414,0,0
375756.35,50.4288,-347.745,0,0
377057.975,49.8998,-345.707,0,0
378359.6,49.3499,-343.591,0,0
379661,48.7007,-341.368,0,0
380963,48.0485,-338.804,0,0
382264,47.7527,-335.945,0,0
383566,48.0638,-333.318,0,0
384868,48.0691,-331.323,0,0
386169,47.68,-329.112,0,0
387471,47.2957,-326.678,0,0
388773,47.0248,-324.092,0,0
390074,46.8621,-321.46,0,0
391376,46.7576,-318.812,0,0
392677,46.7476,-316.197,0,0
393979,46.7507,-313.541,0,0
395280.7,46.8248,-310.842,0,0
396582.325,46.9569,-308.15,0,0
397883.95,47.1585,-305.415,0,0
399185.575,47.4272,-302.741,0,0
400006.6,47.5749,-301.036,0,0

File: sample_7.csv
Frequency (Hz),Impedance (ohms),Phase (Radians),Temperature (C),Humidity (%)
10000.0,279.146,-11968.5,0,0
11301.625,251.338,-10589.3,0,0
12603.25,264.126,-9551.11,0,0
13904.875,213.391,-8662.59,0,0
15206.5,200.689,-7932.12,0,0
16508.125,175.304,-7299.19,0,0
17809.75,174.168,-6750.4,0,0
19111.375,182.884,-6314.69,0,0
20413.0,173.69,-5923.7,0,0
21714.625,157.334,-5583.18,0,0
23016.25,133.571,-5264.47,0,0
24317.875,125.965,-4974.89,0,0
25619.5,122.163,-4714.09,0,0
26921.1,125.824,-4471.43,0,0
28222.7,182.013,-4272.68,0,0
29524.4,136.741,-4126.17,0,0
30826,137.236,-3946.87,0,0
32127.6,119.967,-3802.4,0,0
33429.2,103.991,-3652.91,0,0
34730.9,95.6623,-3510.23,0,0
36032.5,91.4657,-3378.11,0,0
37334.1,89.0224,-3256.05,0,0
38635.7,88.8066,-3140.51,0,0
39937.4,98.3351,-3040.96,0,0
41239,89.0157,-2953.25,0,0
42540.6,82.7325,-2858.57,0,0
43842.225,82.247,-2770.74,0,0
45143.85,82.6556,-2694.09,0,0
46445.475,79.7188,-2622.02,0,0
47747.1,73.7068,-2546.75,0,0
49048.725,70.9519,-2477.34,0,0
50350.35,68.819,-2411.05,0,0
51651.975,67.1903,-2348.04,0,0
52953.6,66.2803,-2288.06,0,0
54255.225,65.0232,-2231.66,0,0
55556.85,63.9919,-2177.44,0,0
56858.475,63.2189,-2125.66,0,0
58160.1,62.7183,-2075.73,0,0
59461.7,62.5924,-2028.99,0,0
60763.3,62.1422,-1985.38,0,0
62065,60.2743,-1942.38,0,0
63366.6,59.2212,-1900.42,0,0
64668.2,58.2202,-1860.11,0,0
65969.8,58.3476,-1822.25,0,0
67271.5,56.6026,-1785.86,0,0
68573.1,55.3098,-1749.39,0,0
69874.7,54.9576,-1714.53,0,0
71176.3,54.3435,-1681.31,0,0
72478,53.385,-1649.15,0,0
73779.6,52.5287,-1617.61,0,0
75081.2,52.1031,-1587.1,0,0
76382.825,51.7077,-1557.58,0,0
77684.45,51.3116,-1528.99,0,0
78986.075,51.0998,-1501.27,0,0
80287.7,50.99,-1474.5,0,0
81589.325,50.7485,-1448.48,0,0
82890.95,50.6467,-1423.16,0,0
84192.575,50.636,-1398.24,0,0
85494.2,50.856,-1374.57,0,0
86795.825,50.7974,-1351.36,0,0
88097.45,51.1168,-1328.7,0,0
89399.075,51.0951,-1306.8,0,0
90700.7,51.3972,-1285.02,0,0
92002.3,51.6223,-1263.94,0,0
93303.9,51.82,-1242.89,0,0
94605.6,54.5342,-1223.59,0,0
95907.2,53.3451,-1205.69,0,0
97208.8,53.0279,-1186.06,0,0
98510.4,54.2021,-1166.98,0,0
99812.1,54.0083,-1148.47,0,0
101114,55.2515,-1129.86,0,0
102415,56.6679,-1112.2,0,0
103717,59.4401,-1095.77,0,0
105019,60.4912,-1080.64,0,0
106320.175,60.048,-1064.76,0,0
107621.8,61.5505,-1048.47,0,0
108923.425,62.3487,-1033.27,0,0
110225.05,62.7628,-1016.82,0,0
111526.675,66.2406,-1000.41,0,0
112828.3,70.6667,-984.958,0,0
114129.925,75.1471,-972.833,0,0
115431.55,79.4574,-960.838,0,0
116733.175,85.6614,-952.157,0,0
118034.8,86.3222,-946.377,0,0
119336.425,88.0853,-940.215,0,0
120638.05,82.5855,-937.448,0,0
121939.675,73.669,-926.697,0,0
123241,67.8641,-913.093,0,0
124543,64.3051,-898.531,0,0
125845,60.9577,-885.123,0,0
127146,58.2658,-870.607,0,0
128448,56.6133,-855.788,0,0
129749,55.7146,-841.188,0,0
131051,55.0477,-826.896,0,0
132353,54.6656,-811.842,0,0
133654,55.507,-796.474,0,0
134956,58.597,-781.51,0,0
136258,63.4777,-769.821,0,0
137559,64.344,-760.985,0,0
138860.775,62.8616,-749.783,0,0
140162.4,62.826,-736.424,0,0
141464.025,63.1926,-723.526,0,0
142765.65,63.961,-709.605,0,0
144067.275,66.1316,-695.976,0,0
145368.9,68.12,-683.413,0,0
146670.525,69.4199,-669.816,0,0
147972.15,71.6821,-656.253,0,0
149273.775,73.4002,-643.125,0,0
150575.4,74.9615,-627.733,0,0
151877.025,77.9489,-610.889,0,0
153178.65,83.4612,-593.4,0,0
154480,90.7341,-576.252,0,0
155782,100.624,-559.995,0,0
157084,111.789,-545.949,0,0
158385,122.61,-534.691,0,0
159687,129.424,-524.397,0,0
160988,134.149,-506.132,0,0
162290,147.002,-481.974,0,0
163592,167.759,-458.813,0,0
164893,197.244,-440.597,0,0
166195,230.034,-423.29,0,0
167497,279.823,-416.239,0,0
168798,332.879,-431.446,0,0
170100,375.549,-465.134,0,0
171401.375,403.946,-520.781,0,0
172703.0,403.701,-578.168,0,0
174004.625,373.009,-620.748,0,0
175306.25,336.319,-635.441,0,0
176607.875,319.54,-625.692,0,0
177909.5,322.73,-634.023,0,0
179211.125,310.25,-666.407,0,0
180512.75,275.075,-677.193,0,0
181814.375,240.201,-681.107,0,0
183116.0,205.567,-665.412,0,0
184417.625,182.69,-641.925,0,0
185719.25,170.575,-620.438,0,0
187021,159.233,-595.502,0,0
188322,158.932,-572.225,0,0
189624,153.729,-556.463,0,0
190926,148.91,-533.754,0,0
192227,151.106,-508.911,0,0
193529,156.493,-484.999,0,0
194831,166.361,-462.213,0,0
196132,179.897,-442.295,0,0
197434,194.701,-425.897,0,0
198735,209.72,-409.666,0,0
200037,226.266,-393.869,0,0
201339,247.098,-378.604,0,0
202640.35,273.724,-364.518,0,0
203941.975,304.606,-357.632,0,0
205243.6,335.664,-357.734,0,0
206545.225,366.45,-366.622,0,0
207846.85,385.479,-376.53,0,0
209148.475,416.326,-373.508,0,0
210450.1,462.541,-398.056,0,0
211751.725,485.571,-447.416,0,0
213053.35,485.721,-488.161,0,0
214354.975,476.625,-523.012,0,0
215656.6,459.644,-543.693,0,0
216958.225,448.896,-563.24,0,0
218259.85,428.334,-578.421,0,0
219561,405.541,-583.929,0,0
220863,388.31,-574.672,0,0
222165,384.621,-562.03,0,0
223466,390.081,-554.685,0,0
224768,398.832,-551.436,0,0
226070,414.038,-551.436,0,0
227371,430.889,-564.299,0,0
228673,446.206,-584.774,0,0
229974,451.31,-617.178,0,0
231276,442.726,-653.166,0,0
232578,422.973,-682.242,0,0
233879,392.461,-710.212,0,0
235180.95,345.435,-719.057,0,0
236482.575,311.268,-704.239,0,0
237784.2,289.544,-692.026,0,0
239085.825,270.231,-670.555,0,0
240387.45,269.111,-652.465,0,0
241689.075,265.047,-647.74,0,0
242990.7,252.71,-638.803,0,0
244292.325,247.809,-621.177,0,0
245593.95,255.125,-608.261,0,0
246895.575,259.724,-604.851,0,0
248197.2,261.745,-601.675,0,0
249498.825,264.491,-599.666,0,0
250800,266.826,-600.522,0,0
252102,268.449,-602.772,0,0
253404,266.834,-607.601,0,0
254705,260.818,-613.026,0,0
256007,250.111,-614.162,0,0
257309,240.145,-609.635,0,0
258610,232.37,-600.91,0,0
259912,229.109,-590.912,0,0
261213,229.111,-579.115,0,0
262515,237.55,-567.249,0,0
263817,252.444,-565.573,0,0
265118,261.853,-574.088,0,0
266420,264.558,-582.642,0,0
267721.55,265.098,-591.743,0,0
269023.175,261.186,-599.211,0,0
270324.8,260.358,-603.511,0,0
271626.425,261.844,-613.004,0,0
272928.05,260.015,-634.09,0,0
274229.675,237.763,-656.316,0,0
275531.3,204.522,-662.18,0,0
276832.925,173.31,-652.02,0,0
278134.55,151.614,-631.26,0,0
279436.175,142.456,-609,0,0
280737.8,140.758,-590.693,0,0
282039.425,140.978,-579.175,0,0
283341,137.985,-568.327,0,0
284643,137.008,-554.164,0,0
285944,140.571,-542.061,0,0
287246,144.72,-533.149,0,0
288548,147.619,-524.75,0,0
289849,152.468,-515.89,0,0
291151,158.539,-508.72,0,0
292452,164.469,-503.038,0,0
293754,170.355,-497.304,0,0
295056,177.65,-490.343,0,0
296357,189.585,-483.83,0,0
297659,205.324,-481.672,0,0
298960.525,222.598,-485.61,0,0
300262.15,239.623,-495.648,0,0
301563.775,254.92,-514.16,0,0
302865.4,261.121,-542.842,0,0
304167.025,250.329,-569.911,0,0
305468.65,232.175,-588.44,0,0
306770.275,210.144,-598.212,0,0
308071.9,189.73,-599.748,0,0
309373.525,172.089,-596.359,0,0
310675.15,158.632,-590.097,0,0
311976.775,148.496,-583.363,0,0
313278.4,139.973,-577.199,0,0
314580,132.068,-570.339,0,0
315882,126.274,-562.446,0,0
317183,122.598,-555.286,0,0
318485,119.629,-549.348,0,0
319787,117.721,-543.551,0,0
321088,116.418,-539.588,0,0
322390,114.129,-536.71,0,0
323691,110.926,-533.669,0,0
324993,107.639,-529.843,0,0
326295,105.096,-525.651,0,0
327596,102.76,-522.242,0,0
328898,100.078,-519.136,0,0
330200,97.0485,-515.731,0,0
331501.125,94.4192,-512.384,0,0
332802.75,90.8076,-509.475,0,0
334104.375,86.4953,-505.325,0,0
335406.0,82.8191,-500.209,0,0
336707.625,79.6839,-494.638,0,0
338009.25,77.1605,-488.543,0,0
339310.875,75.3709,-482.435,0,0
340612.5,74.0962,-476.462,0,0
341914.125,73.4579,-470.384,0,0
343215.75,73.4511,-464.511,0,0
344517.375,74.3104,-459.09,0,0
345819.0,75.4102,-454.739,0,0
347121,76.2924,-451.137,0,0
348422,76.2802,-447.951,0,0
349724,75.7267,-444.056,0,0
351025,75.2594,-439.61,0,0
352327,75.8006,-434.543,0,0
353629,77.4194,-430.062,0,0
354930,79.3649,-426.768,0,0
356232,80.9194,-424.687,0,0
357534,80.7297,-423.132,0,0
358835,79.2154,-420.218,0,0
360137,78.361,-415.245,0,0
361438,79.177,-410.097,0,0
362740.1,80.9393,-405.531,0,0
364041.725,83.0318,-401.514,0,0
365343.35,85.7161,-398.019,0,0
366644.975,88.4745,-395.609,0,0
367946.6,90.7967,-393.548,0,0
369248.225,93.2978,-392.41,0,0
370549.85,94.1423,-392.612,0,0
371851.475,92.5803,-391.187,0,0
373153.1,91.9286,-387.24,0,0
374454.725,92.9339,-383.172,0,0
375756.35,94.5202,-379.506,0,0
377057.975,96.4641,-376.162,0,0
378359.6,98.4666,-372.591,0,0
379661,101.603,-369.104,0,0
380963,105.202,-366.617,0,0
382264,108.845,-364.581,0,0
383566,112.719,-363.489,0,0
384868,115.997,-363.045,0,0
386169,118.517,-362.818,0,0
387471,120.862,-362.237,0,0
388773,122.957,-361.099,0,0
390074,126.192,-359.704,0,0
391376,129.96,-359.134,0,0
392677,133.804,-358.956,0,0
393979,137.976,-359.372,0,0
395280.7,142.606,-360.352,0,0
396582.325,147.577,-362.673,0,0
397883.95,152.464,-366.985,0,0
399185.575,155.827,-373.342,0,0
400006.6,156.51,-378.101,0,0