Folder: ML_Dmg_Mehdi_Dataset/Accelerated corrosion test data/2025-10-10_06-00-03 (part 4)

File: sample_8.csv
Frequency (Hz),Impedance (ohms),Phase (Radians),Temperature (C),Humidity (%)
10000.0,311.968,-10963.3,0,0
11301.625,276.596,-9715.97,0,0
12603.25,254.684,-8725.16,0,0
13904.875,226.23,-7924.51,0,0
15206.5,206.18,-7251.31,0,0
16508.125,190.062,-6685.6,0,0
17809.75,176.333,-6199.3,0,0
19111.375,168.216,-5777.54,0,0
20413.0,160.415,-5415.14,0,0
21714.625,151.097,-5094.9,0,0
23016.25,144.696,-4811.8,0,0
24317.875,134.688,-4555.39,0,0
25619.5,127.463,-4323.13,0,0
26921.1,122.49,-4112.01,0,0
28222.7,119.512,-3921.49,0,0
29524.4,117.249,-3748.41,0,0
30826,115.778,-3591.14,0,0
32127.6,113.795,-3445.68,0,0
33429.2,115.477,-3311.48,0,0
34730.9,113.117,-3194.91,0,0
36032.5,106.215,-3085.23,0,0
37334.1,98.4903,-2978.27,0,0
38635.7,91.7393,-2876.19,0,0
39937.4,86.4183,-2779.69,0,0
41239,84.2615,-2688.89,0,0
42540.6,81.8534,-2603.97,0,0
43842.225,81.4852,-2525.91,0,0
45143.85,78.102,-2451.44,0,0
46445.475,75.7074,-2380.7,0,0
47747.1,74.2389,-2313.43,0,0
49048.725,72.3716,-2250.5,0,0
50350.35,70.5313,-2189.53,0,0
51651.975,69.7317,-2131.59,0,0
52953.6,69.3862,-2077.2,0,0
54255.225,67.9907,-2027.27,0,0
55556.85,65.003,-1977.65,0,0
56858.475,62.8071,-1928.6,0,0
58160.1,62.0198,-1881.88,0,0
59461.7,61.8667,-1838.11,0,0
60763.3,60.4292,-1795.3,0,0
62065,60.2814,-1754.4,0,0
63366.6,61.0214,-1714.55,0,0
64668.2,62.2444,-1678.63,0,0
65969.8,61.0726,-1644.38,0,0
67271.5,58.8325,-1609.74,0,0
68573.1,58.0379,-1575.64,0,0
69874.7,57.7757,-1542.44,0,0
71176.3,58.057,-1510.97,0,0
72478,58.2951,-1481.47,0,0
73779.6,57.4457,-1452.15,0,0
75081.2,56.8535,-1423.63,0,0
76382.825,56.8611,-1395.55,0,0
77684.45,56.7472,-1368.78,0,0
78986.075,56.3268,-1342.29,0,0
80287.7,56.5279,-1316.22,0,0
81589.325,56.9502,-1290.53,0,0
82890.95,58.5667,-1265.91,0,0
84192.575,60.2861,-1242.51,0,0
85494.2,61.239,-1221.35,0,0
86795.825,61.045,-1198.25,0,0
88097.45,62.705,-1175.64,0,0
89399.075,64.6876,-1154.14,0,0
90700.7,67.8083,-1132.73,0,0
92002.3,72.7433,-1114.34,0,0
93303.9,75.1615,-1099.4,0,0
94605.6,74.2518,-1081.48,0,0
95907.2,76.4017,-1063.95,0,0
97208.8,78.3256,-1046.89,0,0
98510.4,80.817,-1031.95,0,0
99812.1,80.7579,-1018.18,0,0
101114,81.1795,-1003.66,0,0
102415,80.0538,-989.707,0,0
103717,78.4604,-973.659,0,0
105019,78.3387,-957.916,0,0
106320.175,79.1328,-941.561,0,0
107621.8,80.8727,-927.517,0,0
108923.425,80.9064,-913.347,0,0
110225.05,81.852,-899.278,0,0
111526.675,82.2905,-885.947,0,0
112828.3,82.761,-872.67,0,0
114129.925,83.1341,-859.853,0,0
115431.55,82.9916,-846.902,0,0
116733.175,82.5777,-833.837,0,0
118034.8,82.8598,-819.996,0,0
119336.425,83.7317,-807.371,0,0
120638.05,83.1718,-794.813,0,0
121939.675,83.2816,-781.647,0,0
123241,83.5303,-768.945,0,0
124543,83.4896,-755.533,0,0
125845,84.222,-742.593,0,0
127146,84.8609,-729.615,0,0
128448,85.3402,-716.74,0,0
129749,85.762,-703.799,0,0
131051,87.0439,-690.268,0,0
132353,87.6495,-678.005,0,0
133654,88.1693,-664.364,0,0
134956,89.3292,-649.683,0,0
136258,92.9286,-636.171,0,0
137559,94.168,-624.945,0,0
138860.775,93.6553,-610.554,0,0
140162.4,95.3542,-595.241,0,0
141464.025,97.6621,-579.483,0,0
142765.65,100.445,-563.243,0,0
144067.275,104.266,-545.905,0,0
145368.9,110.521,-526.851,0,0
146670.525,120.105,-509.808,0,0
147972.15,129.861,-495.182,0,0
149273.775,139.135,-476.496,0,0
150575.4,156.406,-458.271,0,0
151877.025,180.68,-448.688,0,0
153178.65,196.888,-450.584,0,0
154480,205.236,-449.828,0,0
155782,215.923,-443.127,0,0
157084,224.989,-451.457,0,0
158385,219.973,-442.081,0,0
159687,231.672,-431.653,0,0
160988,234.534,-429.696,0,0
162290,240.891,-415.242,0,0
163592,256.438,-408.485,0,0
164893,268.148,-409.647,0,0
166195,271.193,-417.391,0,0
167497,262.7,-414.442,0,0
168798,256.224,-401.79,0,0
170100,255.045,-383.215,0,0
171401.375,257.402,-362.02,0,0
172703.0,267.797,-334.427,0,0
174004.625,287.828,-314.926,0,0
175306.25,304.743,-300.536,0,0
176607.875,320.756,-279.331,0,0
177909.5,347.159,-259.026,0,0
179211.125,382.845,-242.778,0,0
180512.75,419.699,-237.779,0,0
181814.375,451.804,-238.35,0,0
183116.0,485.107,-241.154,0,0
184417.625,509.285,-247.143,0,0
185719.25,536.537,-242.653,0,0
187021,576.183,-242.595,0,0
188322,619.987,-248.236,0,0
189624,665.031,-272.233,0,0
190926,696.292,-292.354,0,0
192227,742.099,-314.656,0,0
193529,782.588,-337.919,0,0
194831,850.713,-382.857,0,0
196132,904.163,-461.411,0,0
197434,924.882,-571.497,0,0
198735,900.544,-677.355,0,0
200037,850.302,-761.446,0,0
201339,778.508,-819.726,0,0
202640.35,704.92,-855.844,0,0
203941.975,631.995,-858.106,0,0
205243.6,581.852,-847.099,0,0
206545.225,538.161,-831.506,0,0
207846.85,514.393,-806.292,0,0
209148.475,502.064,-790.135,0,0
210450.1,496.442,-778.342,0,0
211751.725,495.363,-774.579,0,0
213053.35,492.396,-780.3,0,0
214354.975,481.589,-789.219,0,0
215656.6,465.626,-793.72,0,0
216958.225,448.918,-790.716,0,0
218259.85,442.534,-784.415,0,0
219561,438.659,-784.562,0,0
220863,436.584,-788.034,0,0
222165,432.595,-796.393,0,0
223466,424.444,-808.692,0,0
224768,413.105,-819.432,0,0
226070,397.907,-834.242,0,0
227371,373.746,-843.993,0,0
228673,348.105,-844.751,0,0
229974,328.71,-843.638,0,0
231276,305.884,-843.657,0,0
232578,281.279,-838.539,0,0
233879,258.663,-827.828,0,0
235180.95,238.847,-813.375,0,0
236482.575,224.508,-796.276,0,0
237784.2,214.975,-779.551,0,0
239085.825,210.023,-764.363,0,0
240387.45,208.124,-755.518,0,0
241689.075,201.271,-750.608,0,0
242990.7,190.526,-742.536,0,0
244292.325,181.172,-730.751,0,0
245593.95,174.231,-717.818,0,0
246895.575,170.215,-704.095,0,0
248197.2,167.52,-693.337,0,0
249498.825,163.264,-681.443,0,0
250800,161.634,-666.77,0,0
252102,165.11,-652.245,0,0
253404,172.378,-643.967,0,0
254705,175.067,-639.555,0,0
256007,176.262,-632.739,0,0
257309,179.003,-625.376,0,0
258610,183.691,-618.299,0,0
259912,189.982,-613.356,0,0
261213,195.855,-610.9,0,0
262515,201.513,-610.234,0,0
263817,204.806,-610.697,0,0
265118,206.599,-609.085,0,0
266420,212.022,-605.057,0,0
267721.55,223.236,-603.866,0,0
269023.175,237.223,-611.077,0,0
270324.8,246.658,-627.222,0,0
271626.425,247.864,-648.723,0,0
272928.05,238.019,-670.682,0,0
274229.675,218.443,-687.277,0,0
275531.3,193.477,-692.539,0,0
276832.925,172.67,-688.001,0,0
278134.55,156.756,-680.561,0,0
279436.175,143.43,-671.172,0,0
280737.8,134.645,-659.137,0,0
282039.425,130.625,-648.397,0,0
283341,129.145,-640.913,0,0
284643,126.497,-634.954,0,0
285944,125.761,-627.75,0,0
287246,128.972,-624.663,0,0
288548,129.147,-628.727,0,0
289849,121.646,-632.033,0,0
291151,112.462,-630.428,0,0
292452,103.947,-627.321,0,0
293754,95.4249,-622.041,0,0
295056,87.9795,-615.146,0,0
296357,82.2301,-607.075,0,0
297659,78.026,-599.238,0,0
298960.525,74.6194,-591.322,0,0
300262.15,72.0931,-583.275,0,0
301563.775,70.997,-575.122,0,0
302865.4,71.4288,-568.119,0,0
304167.025,72.1197,-562.427,0,0
305468.65,72.9552,-557.467,0,0
306770.275,73.9831,-553.495,0,0
308071.9,74.7751,-550.469,0,0
309373.525,75.01,-548.831,0,0
310675.15,73.3595,-546.987,0,0
311976.775,71.5425,-544.42,0,0
313278.4,69.5602,-541.748,0,0
314580,67.1064,-538.757,0,0
315882,64.7854,-534.942,0,0
317183,62.9262,-530.609,0,0
318485,61.8712,-526.541,0,0
319787,61.3433,-522.748,0,0
321088,60.8587,-519.88,0,0
322390,59.6155,-517.453,0,0
323691,58.0727,-514.939,0,0
324993,55.8523,-512.379,0,0
326295,53.3952,-508.892,0,0
327596,51.3342,-505.044,0,0
328898,49.5178,-501.08,0,0
330200,47.8839,-497.101,0,0
331501.125,46.3841,-492.816,0,0
332802.75,45.0984,-488.377,0,0
334104.375,44.3999,-483.817,0,0
335406.0,44.2744,-479.445,0,0
336707.625,44.3853,-475.704,0,0
338009.25,44.3733,-472.508,0,0
339310.875,44.0621,-469.459,0,0
340612.5,43.4866,-466.418,0,0
341914.125,42.6847,-463.261,0,0
343215.75,41.8551,-459.739,0,0
344517.375,41.2288,-456.121,0,0
345819.0,40.8017,-452.381,0,0
347121,40.6523,-448.587,0,0
348422,40.7894,-444.879,0,0
349724,41.0816,-441.447,0,0
351025,41.5255,-438.191,0,0
352327,41.9091,-435.129,0,0
353629,42.3781,-432.234,0,0
354930,42.8294,-429.586,0,0
356232,43.1727,-427.185,0,0
357534,43.1963,-424.908,0,0
358835,42.9728,-422.437,0,0
360137,42.7602,-419.669,0,0
361438,42.6408,-416.834,0,0
362740.1,42.6283,-413.97,0,0
364041.725,42.7475,-410.948,0,0
365343.35,43.1655,-407.899,0,0
366644.975,43.8965,-405.239,0,0
367946.6,44.3288,-402.798,0,0
369248.225,44.8013,-400.045,0,0
370549.85,45.827,-397.357,0,0
371851.475,46.957,-395.436,0,0
373153.1,47.8066,-393.793,0,0
374454.725,48.18,-392.293,0,0
375756.35,48.4565,-390.589,0,0
377057.975,48.9069,-388.891,0,0
378359.6,49.2227,-387.667,0,0
379661,48.6721,-386.229,0,0
380963,48.8138,-383.827,0,0
382264,49.5654,-382.84,0,0
383566,48.8898,-382.272,0,0
384868,47.4359,-380.828,0,0
386169,46.0667,-378.566,0,0
387471,45.0944,-375.841,0,0
388773,44.5053,-372.85,0,0
390074,44.4986,-369.997,0,0
391376,44.5062,-367.426,0,0
392677,44.4893,-364.916,0,0
393979,44.5007,-362.303,0,0
395280.7,44.6488,-359.644,0,0
396582.325,45.0167,-357.02,0,0
397883.95,45.4897,-354.733,0,0
399185.575,45.6605,-352.546,0,0
400006.6,45.7047,-351.114,0,0