Folder: ML_Dmg_Mehdi_Dataset/Accelerated corrosion test data/2025-10-01_06-00-03 (part 2)

File: sample_3.csv
Frequency (Hz),Impedance (ohms),Phase (Radians),Temperature (C),Humidity (%)
10000.0,255.862,-11765.4,0,0
11301.625,227.494,-10421.2,0,0
12603.25,205.939,-9353.46,0,0
13904.875,188.281,-8482.96,0,0
15206.5,176.212,-7755.53,0,0
16508.125,164.963,-7161.56,0,0
17809.75,159.337,-6633.31,0,0
19111.375,147.854,-6182.3,0,0
20413.0,158.804,-5781.18,0,0
21714.625,140.294,-5463.61,0,0
23016.25,129.432,-5158,0,0
24317.875,120.783,-4879.28,0,0
25619.5,115.676,-4633.14,0,0
26921.1,109.389,-4403.16,0,0
28222.7,105.331,-4197.13,0,0
29524.4,110.976,-4018.15,0,0
30826,101.978,-3847.87,0,0
32127.6,102.948,-3684.29,0,0
33429.2,101.216,-3558.89,0,0
34730.9,89.2403,-3422.18,0,0
36032.5,84.7597,-3294.75,0,0
37334.1,81.8328,-3177.31,0,0
38635.7,79.3938,-3067.26,0,0
39937.4,76.7918,-2965.16,0,0
41239,75.4208,-2868.14,0,0
42540.6,74.7087,-2778.89,0,0
43842.225,73.0939,-2693.28,0,0
45143.85,71.8019,-2614.03,0,0
46445.475,71.1687,-2538.22,0,0
47747.1,71.0625,-2465.73,0,0
49048.725,69.734,-2400.54,0,0
50350.35,67.5766,-2335.44,0,0
51651.975,67.305,-2273.11,0,0
52953.6,67.5814,-2213.27,0,0
54255.225,70.2774,-2158.81,0,0
55556.85,67.9114,-2111.48,0,0
56858.475,62.7109,-2058.72,0,0
58160.1,62.0986,-2006.71,0,0
59461.7,62.6816,-1957.69,0,0
60763.3,64.1573,-1910.92,0,0
62065,66.1914,-1866.47,0,0
63366.6,69.621,-1823,0,0
64668.2,78.1011,-1781.65,0,0
65969.8,92.7334,-1755.17,0,0
67271.5,77.466,-1730.93,0,0
68573.1,77.2331,-1693.62,0,0
69874.7,76.5053,-1664.32,0,0
71176.3,71.3083,-1633.59,0,0
72478,69.7817,-1601,0,0
73779.6,68.208,-1572.61,0,0
75081.2,64.6543,-1544.22,0,0
76382.825,61.1562,-1515.06,0,0
77684.45,58.7637,-1486.18,0,0
78986.075,56.5838,-1457.73,0,0
80287.7,55.0683,-1429.74,0,0
81589.325,54.0163,-1402.61,0,0
82890.95,53.4943,-1376.17,0,0
84192.575,53.2388,-1350.51,0,0
85494.2,53.1618,-1325.51,0,0
86795.825,53.2945,-1301.2,0,0
88097.45,53.7402,-1277.13,0,0
89399.075,55.0773,-1253.56,0,0
90700.7,57.4424,-1231.34,0,0
92002.3,60.1217,-1210.23,0,0
93303.9,63.6809,-1191.57,0,0
94605.6,65.6087,-1177.15,0,0
95907.2,59.906,-1160.15,0,0
97208.8,59.0292,-1139.12,0,0
98510.4,59.1994,-1120.27,0,0
99812.1,58.38,-1102.11,0,0
101114,57.3452,-1082.7,0,0
102415,58.3387,-1062.11,0,0
103717,62.4248,-1044.25,0,0
105019,66.4595,-1030.54,0,0
106320.175,64.7255,-1018.27,0,0
107621.8,61.2551,-1002.33,0,0
108923.425,59.0911,-984.219,0,0
110225.05,59.0729,-965.174,0,0
111526.675,61.4394,-947.084,0,0
112828.3,63.5587,-930.985,0,0
114129.925,65.1188,-914.655,0,0
115431.55,67.5826,-898.079,0,0
116733.175,71.3118,-881.613,0,0
118034.8,76.9526,-866.089,0,0
119336.425,83.9412,-854.499,0,0
120638.05,88.6152,-848.221,0,0
121939.675,86.6968,-839.042,0,0
123241,86.9895,-826.186,0,0
124543,88.3289,-814.952,0,0
125845,89.2607,-804.804,0,0
127146,88.5181,-794.862,0,0
128448,86.4134,-783.675,0,0
129749,84.8716,-770.388,0,0
131051,85.6645,-756.966,0,0
132353,85.3795,-745.741,0,0
133654,84.692,-733.398,0,0
134956,83.5057,-720.602,0,0
136258,82.4165,-706.907,0,0
137559,82.6241,-691.856,0,0
138860.775,84.0036,-678.347,0,0
140162.4,83.3041,-665.142,0,0
141464.025,83.2715,-650.386,0,0
142765.65,82.8837,-634.81,0,0
144067.275,83.2338,-617.775,0,0
145368.9,84.9108,-599.971,0,0
146670.525,87.4082,-581.178,0,0
147972.15,91.8976,-561.264,0,0
149273.775,98.4988,-540.959,0,0
150575.4,108.505,-520.475,0,0
151877.025,121.64,-503.262,0,0
153178.65,134.604,-489.05,0,0
154480,145.513,-476.682,0,0
155782,153.751,-461.387,0,0
157084,165.923,-444.823,0,0
158385,181.232,-431.26,0,0
159687,189.963,-416.706,0,0
160988,202.421,-389.885,0,0
162290,231.009,-363.421,0,0
163592,270.291,-346.5,0,0
164893,315.362,-337.658,0,0
166195,367.954,-352.146,0,0
167497,404.005,-383.604,0,0
168798,424.082,-420.265,0,0
170100,429.844,-456.849,0,0
171401.375,414.134,-477.884,0,0
172703.0,408.398,-482.72,0,0
174004.625,412.56,-488.079,0,0
175306.25,421.244,-507.579,0,0
176607.875,409.673,-530.842,0,0
177909.5,392.186,-544.058,0,0
179211.125,366.502,-539.655,0,0
180512.75,357.573,-525.032,0,0
181814.375,362.339,-519.588,0,0
183116.0,356.508,-527.14,0,0
184417.625,341.43,-523.092,0,0
185719.25,328.363,-508.639,0,0
187021,322.641,-487.766,0,0
188322,327.95,-468.14,0,0
189624,334.942,-454.608,0,0
190926,343.746,-438.561,0,0
192227,353.526,-425.405,0,0
193529,365.053,-409.141,0,0
194831,386.581,-390.2,0,0
196132,420.624,-387.253,0,0
197434,443.74,-398.947,0,0
198735,453.047,-408.689,0,0
200037,460.246,-407.286,0,0
201339,469.532,-406.142,0,0
202640.35,482.68,-398.209,0,0
203941.975,508.588,-391.392,0,0
205243.6,540.467,-397.218,0,0
206545.225,561.7,-415.77,0,0
207846.85,576.346,-423.48,0,0
209148.475,601.614,-427.657,0,0
210450.1,635.609,-443.548,0,0
211751.725,665.433,-472.264,0,0
213053.35,688.576,-505.834,0,0
214354.975,708.555,-546.882,0,0
215656.6,717.95,-593.641,0,0
216958.225,719.845,-641.206,0,0
218259.85,708.413,-690.17,0,0
219561,686.47,-732.48,0,0
220863,667.788,-766.524,0,0
222165,637.387,-808.176,0,0
223466,592.75,-834.73,0,0
224768,550.118,-841.413,0,0
226070,522.611,-839.131,0,0
227371,505.531,-846.759,0,0
228673,480.73,-857.843,0,0
229974,451.324,-866.551,0,0
231276,420.552,-867.984,0,0
232578,392.764,-864.39,0,0
233879,368.285,-859.55,0,0
235180.95,344.925,-854.53,0,0
236482.575,320.993,-848.452,0,0
237784.2,296.997,-838.511,0,0
239085.825,274.104,-824.795,0,0
240387.45,255.632,-806.651,0,0
241689.075,242.513,-788.021,0,0
242990.7,233.707,-769.696,0,0
244292.325,228.849,-753.843,0,0
245593.95,224.411,-741.831,0,0
246895.575,219.836,-729.852,0,0
248197.2,215.871,-717.916,0,0
249498.825,214.689,-706.29,0,0
250800,214.291,-698.541,0,0
252102,210.172,-693.263,0,0
253404,202.494,-684.195,0,0
254705,197.244,-669.367,0,0
256007,197.297,-652.883,0,0
257309,204.833,-637.366,0,0
258610,215.662,-629.158,0,0
259912,225.557,-622.73,0,0
261213,240.383,-622.661,0,0
262515,251.771,-632.618,0,0
263817,253.017,-647.265,0,0
265118,245.192,-659.794,0,0
266420,230.321,-665.976,0,0
267721.55,215.285,-663.018,0,0
269023.175,204.668,-654.552,0,0
270324.8,198.855,-644.824,0,0
271626.425,196.442,-635.561,0,0
272928.05,196.264,-627.898,0,0
274229.675,196.374,-621.66,0,0
275531.3,198.365,-614.196,0,0
276832.925,204.378,-608.581,0,0
278134.55,212.94,-609.38,0,0
279436.175,217.29,-616.399,0,0
280737.8,214.129,-625.131,0,0
282039.425,207.023,-628.701,0,0
283341,199.56,-630.568,0,0
284643,191.101,-629.14,0,0
285944,183.63,-625.637,0,0
287246,177.28,-619.39,0,0
288548,175.456,-611.71,0,0
289849,176.798,-607.77,0,0
291151,176.035,-606.612,0,0
292452,173.746,-604.954,0,0
293754,171.541,-601.553,0,0
295056,172.338,-598.262,0,0
296357,174.206,-598.444,0,0
297659,173.597,-601.387,0,0
298960.525,169.705,-604.79,0,0
300262.15,163.556,-606.126,0,0
301563.775,156.906,-605.855,0,0
302865.4,149.847,-603.938,0,0
304167.025,143.402,-600.381,0,0
305468.65,137.9,-595.622,0,0
306770.275,133.712,-590.416,0,0
308071.9,131.049,-585.161,0,0
309373.525,129.35,-581.462,0,0
310675.15,126.64,-578.856,0,0
311976.775,122.89,-575.576,0,0
313278.4,118.804,-571.432,0,0
314580,115.254,-565.464,0,0
315882,113.936,-558.806,0,0
317183,114.854,-553.452,0,0
318485,116.079,-550.303,0,0
319787,116.067,-547.961,0,0
321088,115.772,-545.616,0,0
322390,116.26,-543.509,0,0
323691,116.481,-543.247,0,0
324993,115.057,-543.894,0,0
326295,111.919,-544.211,0,0
327596,107.689,-543.356,0,0
328898,103.453,-541.203,0,0
330200,99.7182,-538.747,0,0
331501.125,95.4114,-536.177,0,0
332802.75,90.9005,-532.666,0,0
334104.375,86.4983,-528.207,0,0
335406.0,82.5854,-522.761,0,0
336707.625,79.8411,-516.518,0,0
338009.25,78.1016,-510.392,0,0
339310.875,76.8713,-504.04,0,0
340612.5,77.147,-497.379,0,0
341914.125,79.0036,-491.806,0,0
343215.75,81.4165,-488.152,0,0
344517.375,83.0424,-486.144,0,0
345819.0,83.1892,-484.453,0,0
347121,82.5812,-482.334,0,0
348422,81.6973,-479.417,0,0
349724,81.6218,-475.854,0,0
351025,82.4614,-472.792,0,0
352327,83.6474,-471.019,0,0
353629,83.7544,-470.484,0,0
354930,82.0747,-469.542,0,0
356232,79.9159,-467.237,0,0
357534,78.4498,-464.088,0,0
358835,77.3851,-460.894,0,0
360137,76.5858,-457.318,0,0
361438,76.4289,-453.82,0,0
362740.1,76.7883,-450.461,0,0
364041.725,77.6039,-447.532,0,0
365343.35,78.8451,-445.409,0,0
366644.975,79.5862,-445.049,0,0
367946.6,77.8524,-444.865,0,0
369248.225,74.839,-442.055,0,0
370549.85,74.2179,-436.989,0,0
371851.475,76.1571,-434.017,0,0
373153.1,76.7291,-433.35,0,0
374454.725,75.4215,-432.116,0,0
375756.35,73.9478,-429.593,0,0
377057.975,73.0163,-426.091,0,0
378359.6,73.3895,-422.433,0,0
379661,74.3673,-419.859,0,0
380963,75.1026,-417.855,0,0
382264,75.806,-416.159,0,0
383566,76.0066,-415.316,0,0
384868,75.0095,-414.346,0,0
386169,73.5331,-412.322,0,0
387471,72.3332,-409.506,0,0
388773,71.5649,-406.17,0,0
390074,71.3775,-402.534,0,0
391376,72.1327,-398.77,0,0
392677,73.7377,-395.388,0,0
393979,76.0112,-392.884,0,0
395280.7,78.4418,-391.487,0,0
396582.325,80.4571,-391.267,0,0
397883.95,81.5096,-391.749,0,0
399185.575,81.433,-392.425,0,0
400006.6,80.686,-392.658,0,0

File: sample_4.csv
Frequency (Hz),Impedance (ohms),Phase (Radians),Temperature (C),Humidity (%)
10000.0,265.759,-11864.7,0,0
11301.625,237.225,-10511.5,0,0
12603.25,214.719,-9430.42,0,0
13904.875,194.995,-8550.55,0,0
15206.5,183.454,-7826.55,0,0
16508.125,184.086,-7209.95,0,0
17809.75,157.498,-6705.01,0,0
19111.375,146.92,-6249.28,0,0
20413.0,142.938,-5849.67,0,0
21714.625,146.381,-5503.48,0,0
23016.25,126.654,-5204.21,0,0
24317.875,118.025,-4919.6,0,0
25619.5,113.66,-4666.72,0,0
26921.1,108.122,-4438.14,0,0
28222.7,120.637,-4230.93,0,0
29524.4,114.45,-4055.28,0,0
30826,100.435,-3883.92,0,0
32127.6,100.325,-3723.66,0,0
33429.2,91.6918,-3582.98,0,0
34730.9,86.2405,-3444.88,0,0
36032.5,82.9287,-3317.23,0,0
37334.1,80.949,-3198.43,0,0
38635.7,78.4887,-3086.81,0,0
39937.4,78.1039,-2981.17,0,0
41239,80.6907,-2886.04,0,0
42540.6,80.0536,-2799.62,0,0
43842.225,74.8719,-2715.73,0,0
45143.85,72.4001,-2634.54,0,0
46445.475,71.6291,-2557.56,0,0
47747.1,70.9675,-2488.03,0,0
49048.725,67.1058,-2418.61,0,0
50350.35,65.6048,-2351.22,0,0
51651.975,65.0206,-2286.44,0,0
52953.6,66.9341,-2223.54,0,0
54255.225,74.6551,-2167.13,0,0
55556.85,72.5052,-2123.94,0,0
56858.475,66.5302,-2070.77,0,0
58160.1,67.3518,-2018.27,0,0
59461.7,71.5164,-1967.51,0,0
60763.3,81.0018,-1929.65,0,0
62065,70.8883,-1896.62,0,0
63366.6,65.3234,-1850.78,0,0
64668.2,65.1279,-1807.57,0,0
65969.8,67.0462,-1767.41,0,0
67271.5,70.7509,-1731.05,0,0
68573.1,74.4704,-1702.06,0,0
69874.7,67.214,-1672.36,0,0
71176.3,66.034,-1637.89,0,0
72478,59.7923,-1606.87,0,0
73779.6,58.3073,-1570.17,0,0
75081.2,60.4418,-1537.57,0,0
76382.825,62.8875,-1508.52,0,0
77684.45,65.6956,-1480.47,0,0
78986.075,64.802,-1458.27,0,0
80287.7,61.6451,-1431.55,0,0
81589.325,61.0898,-1405.52,0,0
82890.95,59.8345,-1380.53,0,0
84192.575,58.6467,-1355.81,0,0
85494.2,57.7656,-1331.48,0,0
86795.825,57.0153,-1307.79,0,0
88097.45,55.6605,-1285.34,0,0
89399.075,54.1446,-1260.92,0,0
90700.7,54.1152,-1237.95,0,0
92002.3,54.3567,-1214.99,0,0
93303.9,55.7534,-1194.08,0,0
94605.6,54.3696,-1173.94,0,0
95907.2,53.6447,-1151.52,0,0
97208.8,54.3806,-1129.91,0,0
98510.4,55.5221,-1108.65,0,0
99812.1,57.9969,-1088.02,0,0
101114,61.9206,-1069.19,0,0
102415,61.1396,-1054.53,0,0
103717,58.1933,-1032.37,0,0
105019,61.6089,-1008.66,0,0
106320.175,67.7213,-988.496,0,0
107621.8,74.0343,-970.245,0,0
108923.425,81.8231,-952.911,0,0
110225.05,89.67,-939.539,0,0
111526.675,96.1817,-927.6,0,0
112828.3,102.072,-916.779,0,0
114129.925,106.552,-907.898,0,0
115431.55,109.465,-899.851,0,0
116733.175,109.848,-891.979,0,0
118034.8,107.899,-881.805,0,0
119336.425,109.423,-868.352,0,0
120638.05,114.469,-863.583,0,0
121939.675,107.438,-858.014,0,0
123241,102.17,-846.005,0,0
124543,99.2184,-833.628,0,0
125845,96.6691,-821.227,0,0
127146,93.7522,-810.57,0,0
128448,88.7409,-798.555,0,0
129749,82.3265,-784.429,0,0
131051,77.2175,-766.942,0,0
132353,74.4692,-748.317,0,0
133654,73.3656,-729.379,0,0
134956,73.8036,-710.349,0,0
136258,75.9347,-691.808,0,0
137559,78.8762,-674.194,0,0
138860.775,80.8529,-656.777,0,0
140162.4,83.9437,-637.972,0,0
141464.025,88.9149,-618.849,0,0
142765.65,95.0112,-600.784,0,0
144067.275,101.424,-582.769,0,0
145368.9,108.988,-564.194,0,0
146670.525,118.041,-545.584,0,0
147972.15,128.844,-527.467,0,0
149273.775,140.838,-509.004,0,0
150575.4,156.225,-491.177,0,0
151877.025,174.914,-475.074,0,0
153178.65,196.212,-462.857,0,0
154480,217.782,-457.235,0,0
155782,234.731,-453.414,0,0
157084,251.266,-450.896,0,0
158385,265.795,-446.428,0,0
159687,285.644,-443.506,0,0
160988,303.07,-449.154,0,0
162290,311.248,-457.173,0,0
163592,314.995,-456.385,0,0
164893,323.759,-448.467,0,0
166195,340.634,-443.166,0,0
167497,364.541,-440.886,0,0
168798,394.64,-455.372,0,0
170100,411.023,-485.048,0,0
171401.375,411.038,-521.885,0,0
172703.0,387.452,-549.335,0,0
174004.625,353.297,-557.277,0,0
175306.25,325.256,-546.608,0,0
176607.875,306.422,-526.338,0,0
177909.5,298.641,-502.462,0,0
179211.125,298.817,-481.714,0,0
180512.75,301.318,-463.481,0,0
181814.375,304.962,-446.685,0,0
183116.0,308.293,-429.66,0,0
184417.625,312.358,-409.411,0,0
185719.25,319.717,-386.581,0,0
187021,331.821,-360.876,0,0
188322,349.448,-334.185,0,0
189624,373.771,-307.067,0,0
190926,406.133,-280.466,0,0
192227,448.587,-258.413,0,0
193529,498.015,-244.457,0,0
194831,551.6,-238.521,0,0
196132,610.51,-240.539,0,0
197434,675.662,-252.379,0,0
198735,748.024,-281.91,0,0
200037,818.046,-337.527,0,0
201339,868.322,-417.172,0,0
202640.35,890.27,-507.176,0,0
203941.975,885.801,-589.645,0,0
205243.6,868.891,-664.913,0,0
206545.225,840.732,-731.505,0,0
207846.85,801.697,-791.662,0,0
209148.475,746.343,-840.184,0,0
210450.1,685.804,-863.409,0,0
211751.725,635.937,-870.164,0,0
213053.35,594.671,-867.323,0,0
214354.975,566.739,-859.952,0,0
215656.6,550.832,-858.332,0,0
216958.225,533.12,-865.745,0,0
218259.85,511.088,-873.305,0,0
219561,487.156,-876.681,0,0
220863,466.312,-880.098,0,0
222165,443.563,-883.637,0,0
223466,420.165,-883.898,0,0
224768,398.248,-884.369,0,0
226070,374.059,-885.135,0,0
227371,346.11,-881.352,0,0
228673,319.096,-872.897,0,0
229974,293.945,-858.111,0,0
231276,274.517,-839.671,0,0
232578,260.903,-821.682,0,0
233879,250.03,-804.612,0,0
235180.95,242.041,-788.628,0,0
236482.575,235.839,-774.288,0,0
237784.2,230.541,-760.227,0,0
239085.825,228.302,-747.038,0,0
240387.45,227.239,-736.975,0,0
241689.075,225.733,-729.638,0,0
242990.7,222.574,-723.519,0,0
244292.325,217.909,-717.432,0,0
245593.95,211.61,-710.483,0,0
246895.575,205.671,-700.695,0,0
248197.2,202.466,-690.26,0,0
249498.825,200.28,-681.668,0,0
250800,197.397,-673.579,0,0
252102,194.36,-665.994,0,0
253404,188.353,-657.216,0,0
254705,183.273,-643.407,0,0
256007,181.762,-627.494,0,0
257309,184.325,-609.627,0,0
258610,192.062,-592.741,0,0
259912,204.681,-576.834,0,0
261213,223.541,-565.581,0,0
262515,245.042,-562.875,0,0
263817,265.414,-566.556,0,0
265118,283.154,-576.594,0,0
266420,298.588,-593.039,0,0
267721.55,304.434,-616.393,0,0
269023.175,300.268,-636.826,0,0
270324.8,289.582,-654.821,0,0
271626.425,275.557,-662.412,0,0
272928.05,266.89,-668.739,0,0
274229.675,255.611,-677.525,0,0
275531.3,239.65,-684.67,0,0
276832.925,218.862,-685.638,0,0
278134.55,199.59,-677.148,0,0
279436.175,187.177,-663.41,0,0
280737.8,183.438,-649.52,0,0
282039.425,182.864,-641.408,0,0
283341,181.286,-634.604,0,0
284643,182.413,-630.148,0,0
285944,180.169,-628.641,0,0
287246,174.961,-626.201,0,0
288548,167.532,-618.389,0,0
289849,166.924,-604.732,0,0
291151,175.728,-594.48,0,0
292452,187.912,-592.978,0,0
293754,197.297,-599.985,0,0
295056,199.405,-612.449,0,0
296357,192.421,-623.607,0,0
297659,181.203,-628.824,0,0
298960.525,170.425,-628.652,0,0
300262.15,162.022,-626.825,0,0
301563.775,154.036,-624.487,0,0
302865.4,146.057,-620.79,0,0
304167.025,139.293,-615.757,0,0
305468.65,133.745,-610.084,0,0
306770.275,129.548,-603.942,0,0
308071.9,127.111,-598.67,0,0
309373.525,124.785,-594.625,0,0
310675.15,121.981,-591.156,0,0
311976.775,118.576,-587.493,0,0
313278.4,115.202,-583.014,0,0
314580,112.965,-578.102,0,0
315882,111.612,-573.74,0,0
317183,110.78,-570.519,0,0
318485,109.811,-568.479,0,0
319787,107.506,-567.678,0,0
321088,103.587,-566.797,0,0
322390,97.7165,-565.242,0,0
323691,90.7335,-560.668,0,0
324993,85.7449,-553.606,0,0
326295,82.7539,-546.815,0,0
327596,80.1632,-540.253,0,0
328898,78.417,-533.185,0,0
330200,78.1984,-526.051,0,0
331501.125,79.4844,-520.282,0,0
332802.75,80.4862,-516.489,0,0
334104.375,80.3081,-513.369,0,0
335406.0,79.137,-510.027,0,0
336707.625,77.3933,-505.906,0,0
338009.25,75.7299,-500.512,0,0
339310.875,75.2085,-494.126,0,0
340612.5,76.4592,-487.748,0,0
341914.125,79.2073,-482.034,0,0
343215.75,83.3678,-477.958,0,0
344517.375,87.4021,-476.725,0,0
345819.0,89.5535,-477.115,0,0
347121,89.7572,-477.588,0,0
348422,88.672,-477.445,0,0
349724,86.868,-476.429,0,0
351025,84.7116,-474.494,0,0
352327,82.7471,-471.491,0,0
353629,81.4289,-467.726,0,0
354930,81.4099,-463.74,0,0
356232,81.9646,-461.135,0,0
357534,81.7162,-459.01,0,0
358835,80.7032,-456.979,0,0
360137,78.9648,-453.584,0,0
361438,78.457,-449.228,0,0
362740.1,78.9106,-445.12,0,0
364041.725,79.8712,-441.63,0,0
365343.35,80.4672,-438.876,0,0
366644.975,80.2365,-435.142,0,0
367946.6,81.2214,-430.379,0,0
369248.225,83.9582,-425.339,0,0
370549.85,88.811,-421.816,0,0
371851.475,94.207,-420.557,0,0
373153.1,99.2667,-422.062,0,0
374454.725,101.649,-425.692,0,0
375756.35,101.14,-428.219,0,0
377057.975,100.402,-429.283,0,0
378359.6,99.5798,-430.352,0,0
379661,98.096,-430.871,0,0
380963,96.9374,-430.654,0,0
382264,96.0677,-430.64,0,0
383566,95.6874,-430.936,0,0
384868,94.3574,-433.012,0,0
386169,90.1308,-434.736,0,0
387471,84.9721,-433.537,0,0
388773,80.7778,-430.174,0,0
390074,79.1384,-425.903,0,0
391376,79.6089,-423.584,0,0
392677,78.6974,-423.872,0,0
393979,75.1428,-423.958,0,0
395280.7,70.3402,-421.81,0,0
396582.325,66.3888,-417.582,0,0
397883.95,63.746,-412.811,0,0
399185.575,62.055,-407.945,0,0
400006.6,61.2319,-404.819,0,0