Folder: ML_Dmg_Mehdi_Dataset/Accelerated corrosion test data/2025-10-22_09-25-28 (part 2)

File: sample_3.csv
Frequency (Hz),Impedance (ohms),Phase (Radians),Temperature (C),Humidity (%)
10000.0,251.804,-11907.1,0,0
11301.625,224.171,-10546.7,0,0
12603.25,203.724,-9465.38,0,0
13904.875,186.089,-8583.3,0,0
15206.5,174.525,-7844.36,0,0
16508.125,161.747,-7245.23,0,0
17809.75,157.059,-6712.91,0,0
19111.375,145.684,-6257.19,0,0
20413.0,166.684,-5854.36,0,0
21714.625,139.641,-5527.83,0,0
23016.25,128.401,-5219.01,0,0
24317.875,119.792,-4937.14,0,0
25619.5,113.808,-4687.09,0,0
26921.1,109.271,-4454.44,0,0
28222.7,104.18,-4245.24,0,0
29524.4,108.522,-4067.19,0,0
30826,101.787,-3893.84,0,0
32127.6,102.48,-3726.89,0,0
33429.2,99.5219,-3602.59,0,0
34730.9,88.0121,-3462.94,0,0
36032.5,83.7424,-3333.56,0,0
37334.1,80.2249,-3214.59,0,0
38635.7,78.1481,-3103.52,0,0
39937.4,75.8944,-2999.97,0,0
41239,74.32,-2901.78,0,0
42540.6,73.3496,-2811.42,0,0
43842.225,71.8409,-2725.08,0,0
45143.85,71.2047,-2644.82,0,0
46445.475,69.5439,-2568.26,0,0
47747.1,70.1469,-2495.1,0,0
49048.725,68.584,-2428.94,0,0
50350.35,66.5386,-2363.19,0,0
51651.975,66.1127,-2299.88,0,0
52953.6,66.2649,-2239.57,0,0
54255.225,68.8904,-2183.96,0,0
55556.85,66.6572,-2135.66,0,0
56858.475,61.663,-2082.66,0,0
58160.1,61.0787,-2030.12,0,0
59461.7,61.5684,-1980.51,0,0
60763.3,62.8641,-1933.55,0,0
62065,64.7382,-1888.14,0,0
63366.6,68.6128,-1843.77,0,0
64668.2,77.4531,-1801.54,0,0
65969.8,91.5517,-1776.14,0,0
67271.5,75.6334,-1749.78,0,0
68573.1,75.996,-1711.8,0,0
69874.7,76.672,-1682.3,0,0
71176.3,71.5925,-1652.04,0,0
72478,70.4493,-1618.93,0,0
73779.6,69.1547,-1590.67,0,0
75081.2,65.5166,-1562.74,0,0
76382.825,61.6893,-1533.57,0,0
77684.45,58.8173,-1504.53,0,0
78986.075,56.3376,-1475.79,0,0
80287.7,54.6653,-1447.46,0,0
81589.325,53.5861,-1420,0,0
82890.95,52.8907,-1393.24,0,0
84192.575,52.5695,-1367.41,0,0
85494.2,52.3546,-1342.15,0,0
86795.825,52.4247,-1317.64,0,0
88097.45,52.8499,-1293.64,0,0
89399.075,54.2807,-1269.72,0,0
90700.7,56.1046,-1247.81,0,0
92002.3,58.0932,-1227,0,0
93303.9,60.5361,-1207.4,0,0
94605.6,61.255,-1192.56,0,0
95907.2,56.4007,-1174.21,0,0
97208.8,55.2277,-1152.66,0,0
98510.4,55.0018,-1132.62,0,0
99812.1,54.8043,-1113.2,0,0
101114,54.6203,-1093.34,0,0
102415,56.1538,-1072.85,0,0
103717,59.8908,-1054.89,0,0
105019,63.1125,-1040.44,0,0
106320.175,63.1849,-1026.34,0,0
107621.8,61.5178,-1010.97,0,0
108923.425,59.5742,-993.867,0,0
110225.05,59.4651,-975.545,0,0
111526.675,61.4339,-957.515,0,0
112828.3,63.5689,-941.445,0,0
114129.925,64.8265,-925.598,0,0
115431.55,66.3698,-908.571,0,0
116733.175,69.7698,-891.692,0,0
118034.8,75.6233,-874.927,0,0
119336.425,82.2722,-862.458,0,0
120638.05,89.848,-856.285,0,0
121939.675,85.7191,-848.003,0,0
123241,86.2637,-833.902,0,0
124543,88.2776,-821.865,0,0
125845,90.3891,-811.022,0,0
127146,90.7702,-801.41,0,0
128448,89.8845,-791.114,0,0
129749,88.7683,-778.96,0,0
131051,89.6281,-766.994,0,0
132353,88.5858,-756.152,0,0
133654,87.2924,-744.588,0,0
134956,85.8047,-731.927,0,0
136258,84.297,-718.739,0,0
137559,83.5526,-703.518,0,0
138860.775,84.9156,-689.949,0,0
140162.4,84.348,-676.926,0,0
141464.025,83.0866,-663.117,0,0
142765.65,82.0859,-646.981,0,0
144067.275,82.0961,-629.75,0,0
145368.9,83.6361,-611.651,0,0
146670.525,85.9825,-592.885,0,0
147972.15,89.9908,-573.12,0,0
149273.775,95.9387,-552.744,0,0
150575.4,105.91,-532.543,0,0
151877.025,118.248,-515.194,0,0
153178.65,129.842,-501.383,0,0
154480,139.835,-487.867,0,0
155782,149.601,-472.394,0,0
157084,161.042,-455.312,0,0
158385,176.287,-444.842,0,0
159687,181.014,-429.976,0,0
160988,193.626,-405.557,0,0
162290,215.344,-379.389,0,0
163592,247.02,-352.987,0,0
164893,295.952,-337.988,0,0
166195,350.359,-344.276,0,0
167497,393.028,-375.967,0,0
168798,413.187,-412.683,0,0
170100,415.818,-447.816,0,0
171401.375,407.763,-462.329,0,0
172703.0,409.749,-467.693,0,0
174004.625,415.319,-481.44,0,0
175306.25,421.842,-496.055,0,0
176607.875,424.022,-524.428,0,0
177909.5,394.783,-543.996,0,0
179211.125,369.789,-533.866,0,0
180512.75,365.87,-520.896,0,0
181814.375,370.95,-516.025,0,0
183116.0,370.727,-523.124,0,0
184417.625,355.917,-527.3,0,0
185719.25,338.092,-519.359,0,0
187021,329.744,-497.69,0,0
188322,330.108,-480.84,0,0
189624,332.188,-461.256,0,0
190926,342.205,-446.023,0,0
192227,349.768,-431.638,0,0
193529,361.35,-412.616,0,0
194831,381.437,-396.05,0,0
196132,411.674,-384.821,0,0
197434,438.23,-393.59,0,0
198735,449.56,-402.098,0,0
200037,458.074,-402.878,0,0
201339,467.467,-394.395,0,0
202640.35,493.235,-385.255,0,0
203941.975,521.389,-387.233,0,0
205243.6,547.327,-402.803,0,0
206545.225,556.947,-412.337,0,0
207846.85,581.989,-408.666,0,0
209148.475,618.713,-420.603,0,0
210450.1,650.971,-444.067,0,0
211751.725,678.182,-475.392,0,0
213053.35,701.708,-511.744,0,0
214354.975,713.678,-556.873,0,0
215656.6,719.94,-599.515,0,0
216958.225,717.176,-644.027,0,0
218259.85,707.596,-686.775,0,0
219561,691.412,-724.681,0,0
220863,675.505,-762.033,0,0
222165,647.774,-805.202,0,0
223466,600.533,-833.35,0,0
224768,559.43,-837.965,0,0
226070,535.174,-837.194,0,0
227371,517.603,-846.127,0,0
228673,490.954,-856.717,0,0
229974,465.396,-863.224,0,0
231276,436.521,-867.487,0,0
232578,409.725,-865.837,0,0
233879,385.432,-862.87,0,0
235180.95,363.153,-859.814,0,0
236482.575,338.252,-855.747,0,0
237784.2,313.765,-847.73,0,0
239085.825,290.873,-835.429,0,0
240387.45,271.399,-820.412,0,0
241689.075,254.421,-802.42,0,0
242990.7,245.343,-783.123,0,0
244292.325,239.269,-770.129,0,0
245593.95,231.392,-757.011,0,0
246895.575,226.097,-743.696,0,0
248197.2,221.504,-730.726,0,0
249498.825,221.223,-719.192,0,0
250800,219.641,-712.204,0,0
252102,214.949,-705.828,0,0
253404,208.061,-696.935,0,0
254705,202.152,-683.651,0,0
256007,200.596,-667.635,0,0
257309,205.847,-652.773,0,0
258610,213.885,-641.101,0,0
259912,226.363,-632.507,0,0
261213,243.95,-633.207,0,0
262515,253.362,-647.005,0,0
263817,251.012,-660.886,0,0
265118,242.435,-670.524,0,0
266420,228.598,-676.093,0,0
267721.55,213.435,-673.078,0,0
269023.175,201.897,-664.858,0,0
270324.8,195.231,-654.382,0,0
271626.425,192.66,-644.962,0,0
272928.05,190.442,-637.188,0,0
274229.675,189.621,-627.738,0,0
275531.3,192.07,-618.267,0,0
276832.925,198.775,-611.497,0,0
278134.55,206.841,-609.822,0,0
279436.175,213.745,-613.784,0,0
280737.8,215.253,-621.531,0,0
282039.425,211.174,-628.388,0,0
283341,203.995,-631.874,0,0
284643,196.008,-632.187,0,0
285944,188.791,-629.726,0,0
287246,183.135,-625.582,0,0
288548,179.294,-620.741,0,0
289849,178.099,-616.815,0,0
291151,176.184,-615.6,0,0
292452,171.635,-613.984,0,0
293754,167.437,-609.11,0,0
295056,167.038,-603.313,0,0
296357,168.954,-601.131,0,0
297659,169.212,-601.997,0,0
298960.525,167.268,-603.562,0,0
300262.15,163.256,-605.09,0,0
301563.775,157.54,-605.318,0,0
302865.4,151.175,-603.511,0,0
304167.025,145.461,-600.323,0,0
305468.65,140.528,-596.056,0,0
306770.275,136.59,-591.385,0,0
308071.9,133.796,-586.497,0,0
309373.525,132.227,-582.309,0,0
310675.15,130.787,-579.722,0,0
311976.775,127.653,-577.952,0,0
313278.4,122.972,-574.765,0,0
314580,118.855,-569.307,0,0
315882,116.909,-562.897,0,0
317183,116.916,-557.527,0,0
318485,117.259,-553.37,0,0
319787,117.568,-550.394,0,0
321088,117.459,-547.063,0,0
322390,119.011,-544.423,0,0
323691,120.423,-544.365,0,0
324993,119.767,-545.887,0,0
326295,116.791,-547.033,0,0
327596,112.287,-546.96,0,0
328898,107.55,-545.235,0,0
330200,103.288,-542.826,0,0
331501.125,98.9196,-540.092,0,0
332802.75,94.4392,-536.669,0,0
334104.375,90.0955,-532.408,0,0
335406.0,86.0408,-527.18,0,0
336707.625,82.9916,-521.222,0,0
338009.25,80.9622,-515.105,0,0
339310.875,79.2529,-509.063,0,0
340612.5,78.5692,-502.159,0,0
341914.125,80.0602,-495.571,0,0
343215.75,82.887,-491.042,0,0
344517.375,85.2482,-488.768,0,0
345819.0,85.9567,-487.509,0,0
347121,85.2632,-485.985,0,0
348422,83.7936,-483.168,0,0
349724,83.0902,-479.151,0,0
351025,84.1138,-475.185,0,0
352327,85.729,-473.092,0,0
353629,86.2082,-472.313,0,0
354930,85.225,-471.236,0,0
356232,83.65,-469.452,0,0
357534,81.9854,-466.555,0,0
358835,81.3607,-462.992,0,0
360137,81.4117,-460.052,0,0
361438,81.017,-457.739,0,0
362740.1,80.2932,-454.528,0,0
364041.725,80.8895,-450.92,0,0
365343.35,82.5108,-448.586,0,0
366644.975,83.5906,-448.038,0,0
367946.6,82.3893,-448.095,0,0
369248.225,79.6705,-445.761,0,0
370549.85,79.1767,-441.592,0,0
371851.475,80.5068,-439.105,0,0
373153.1,80.6475,-438.518,0,0
374454.725,78.9698,-437.232,0,0
375756.35,77.3185,-434.493,0,0
377057.975,76.4689,-431.045,0,0
378359.6,76.5985,-427.412,0,0
379661,77.9123,-424.815,0,0
380963,78.6143,-423.562,0,0
382264,78.469,-422.179,0,0
383566,78.0835,-421.006,0,0
384868,76.8719,-419.568,0,0
386169,75.4162,-417.397,0,0
387471,73.8382,-414.524,0,0
388773,72.8029,-410.769,0,0
390074,72.6202,-406.429,0,0
391376,73.941,-402.145,0,0
392677,76.2021,-399.066,0,0
393979,78.3595,-396.941,0,0
395280.7,80.6061,-395.507,0,0
396582.325,82.6031,-395.03,0,0
397883.95,83.8401,-395.216,0,0
399185.575,84.2344,-395.746,0,0
400006.6,83.9856,-396.144,0,0

File: sample_4.csv
Frequency (Hz),Impedance (ohms),Phase (Radians),Temperature (C),Humidity (%)
10000.0,262.905,-11936.5,0,0
11301.625,233.788,-10574.5,0,0
12603.25,213.634,-9486.63,0,0
13904.875,192.984,-8600.83,0,0
15206.5,180.306,-7871.46,0,0
16508.125,189.677,-7259.88,0,0
17809.75,154.739,-6744.92,0,0
19111.375,144.628,-6285.69,0,0
20413.0,140.063,-5882.43,0,0
21714.625,147.941,-5537.24,0,0
23016.25,124.559,-5234.78,0,0
24317.875,115.337,-4948.95,0,0
25619.5,111.47,-4693.95,0,0
26921.1,106.305,-4463.04,0,0
28222.7,120.299,-4259.67,0,0
29524.4,112.836,-4080.58,0,0
30826,97.8675,-3906.51,0,0
32127.6,99.8107,-3744.76,0,0
33429.2,89.4327,-3603.94,0,0
34730.9,84.3374,-3464.25,0,0
36032.5,81.3111,-3336.4,0,0
37334.1,78.7467,-3216.72,0,0
38635.7,76.3834,-3104.46,0,0
39937.4,76.8522,-2997.58,0,0
41239,79.6701,-2903.73,0,0
42540.6,78.2507,-2814.7,0,0
43842.225,72.8266,-2730.83,0,0
45143.85,70.9856,-2649.56,0,0
46445.475,70.1753,-2571.87,0,0
47747.1,69.7233,-2501.46,0,0
49048.725,65.8298,-2432.12,0,0
50350.35,63.8848,-2364.51,0,0
51651.975,63.2459,-2299.5,0,0
52953.6,64.6624,-2236.19,0,0
54255.225,72.9024,-2179.39,0,0
55556.85,71.4374,-2135.95,0,0
56858.475,65.0115,-2081.85,0,0
58160.1,66.1334,-2029.42,0,0
59461.7,70.2284,-1978.49,0,0
60763.3,79.9436,-1939.97,0,0
62065,69.5713,-1907.31,0,0
63366.6,63.1346,-1861.37,0,0
64668.2,63.6084,-1817.67,0,0
65969.8,65.8078,-1776.38,0,0
67271.5,69.7319,-1739.87,0,0
68573.1,73.3739,-1710.76,0,0
69874.7,66.1277,-1681.01,0,0
71176.3,64.3704,-1646.77,0,0
72478,58.7266,-1614.71,0,0
73779.6,57.2362,-1578.75,0,0
75081.2,59.2235,-1545.26,0,0
76382.825,61.681,-1516.03,0,0
77684.45,64.8825,-1488.31,0,0
78986.075,63.7548,-1465.77,0,0
80287.7,60.8768,-1438.9,0,0
81589.325,60.4609,-1412.94,0,0
82890.95,59.1526,-1388.01,0,0
84192.575,57.8483,-1363.14,0,0
85494.2,56.8217,-1338.77,0,0
86795.825,55.8816,-1315.08,0,0
88097.45,54.4599,-1292.12,0,0
89399.075,53.1743,-1267.84,0,0
90700.7,53.0777,-1244.65,0,0
92002.3,53.4793,-1221.39,0,0
93303.9,54.7903,-1200.38,0,0
94605.6,53.3496,-1180.45,0,0
95907.2,52.556,-1157.89,0,0
97208.8,53.1638,-1136.15,0,0
98510.4,54.4242,-1114.55,0,0
99812.1,56.713,-1093.58,0,0
101114,60.6106,-1075.01,0,0
102415,59.7882,-1060.05,0,0
103717,57.3216,-1037.3,0,0
105019,60.6565,-1013.61,0,0
106320.175,66.9391,-992.776,0,0
107621.8,73.5915,-974.597,0,0
108923.425,81.8738,-957.31,0,0
110225.05,90.4306,-944.057,0,0
111526.675,96.88,-932.979,0,0
112828.3,102.487,-922.705,0,0
114129.925,106.445,-913.892,0,0
115431.55,108.817,-905.73,0,0
116733.175,109.046,-897.413,0,0
118034.8,107.506,-887.144,0,0
119336.425,108.822,-873.984,0,0
120638.05,113.851,-869.136,0,0
121939.675,106.546,-863.263,0,0
123241,101.591,-850.968,0,0
124543,98.5951,-837.886,0,0
125845,97.4633,-826.07,0,0
127146,94.5845,-815.826,0,0
128448,89.1972,-805.894,0,0
129749,81.4177,-791.307,0,0
131051,75.8418,-773.557,0,0
132353,72.7229,-754.691,0,0
133654,71.4341,-735.71,0,0
134956,71.7149,-716.738,0,0
136258,73.3696,-698.183,0,0
137559,75.2903,-680.56,0,0
138860.775,77.1962,-661.956,0,0
140162.4,80.6349,-642.85,0,0
141464.025,85.7188,-623.714,0,0
142765.65,91.6072,-605.532,0,0
144067.275,98.0651,-587.384,0,0
145368.9,105.348,-568.914,0,0
146670.525,114.204,-550.286,0,0
147972.15,124.419,-531.917,0,0
149273.775,136.09,-513.829,0,0
150575.4,150.336,-494.932,0,0
151877.025,168.383,-477.294,0,0
153178.65,190.982,-464.043,0,0
154480,213.093,-458.282,0,0
155782,230.889,-454.381,0,0
157084,246.885,-451.262,0,0
158385,261.88,-447.19,0,0
159687,282.082,-446.017,0,0
160988,296.662,-450.689,0,0
162290,306.872,-455.391,0,0
163592,311.102,-457.253,0,0
164893,317.152,-449.462,0,0
166195,332.581,-438.054,0,0
167497,360.961,-436.114,0,0
168798,389.625,-447.408,0,0
170100,413.579,-476.151,0,0
171401.375,414.35,-516.029,0,0
172703.0,392.251,-548.08,0,0
174004.625,358.47,-558.526,0,0
175306.25,327.43,-551.139,0,0
176607.875,306.153,-530.466,0,0
177909.5,296.4,-506.761,0,0
179211.125,294.752,-483.392,0,0
180512.75,298.458,-464.168,0,0
181814.375,302.625,-447.957,0,0
183116.0,305.059,-431.792,0,0
184417.625,308.455,-411.606,0,0
185719.25,315.466,-390.088,0,0
187021,324.056,-365.921,0,0
188322,337.788,-338.663,0,0
189624,357.291,-309.544,0,0
190926,385.285,-279.282,0,0
192227,423.036,-250.175,0,0
193529,470.722,-227.162,0,0
194831,525.335,-211.538,0,0
196132,587.375,-202.034,0,0
197434,660.613,-202.343,0,0
198735,745.237,-218.937,0,0
200037,837.201,-268.455,0,0
201339,912.129,-351.923,0,0
202640.35,955.937,-453.515,0,0
203941.975,969.267,-562.829,0,0
205243.6,954.852,-663.403,0,0
206545.225,920.873,-755.087,0,0
207846.85,862.523,-834.463,0,0
209148.475,788.578,-887.007,0,0
210450.1,717.616,-910.273,0,0
211751.725,658.068,-916.914,0,0
213053.35,607.719,-914.837,0,0
214354.975,572.694,-903.579,0,0
215656.6,549.381,-901.84,0,0
216958.225,522.56,-902.266,0,0
218259.85,498.834,-902.107,0,0
219561,474.967,-903.83,0,0
220863,448.473,-902.567,0,0
222165,425.114,-898.265,0,0
223466,405.739,-892.626,0,0
224768,387.19,-891.527,0,0
226070,365.554,-891.311,0,0
227371,340.281,-888.726,0,0
228673,313.671,-879.931,0,0
229974,290.588,-866.146,0,0
231276,270.895,-850.343,0,0
232578,255.398,-833.652,0,0
233879,242.373,-816.427,0,0
235180.95,233.041,-800.231,0,0
236482.575,224.204,-784.8,0,0
237784.2,218.186,-768.639,0,0
239085.825,214.844,-754.254,0,0
240387.45,212.813,-741.858,0,0
241689.075,211.665,-731.827,0,0
242990.7,209.718,-724.092,0,0
244292.325,205.682,-717.248,0,0
245593.95,200.167,-709.137,0,0
246895.575,194.722,-699.239,0,0
248197.2,190.747,-687.866,0,0
249498.825,189.065,-676.574,0,0
250800,188.36,-667.509,0,0
252102,185.602,-658.91,0,0
253404,182.69,-648.415,0,0
254705,179.37,-636.933,0,0
256007,177.57,-621.428,0,0
257309,180.11,-603.556,0,0
258610,188.244,-585.396,0,0
259912,202.69,-570.277,0,0
261213,220.303,-559.744,0,0
262515,241.856,-554.274,0,0
263817,264.032,-559.139,0,0
265118,280.26,-567.937,0,0
266420,296.742,-579.964,0,0
267721.55,309.714,-601.283,0,0
269023.175,309.991,-627.371,0,0
270324.8,299.126,-646.631,0,0
271626.425,288.05,-659.35,0,0
272928.05,274.44,-669.086,0,0
274229.675,262.533,-676.67,0,0
275531.3,245.98,-684.635,0,0
276832.925,224.062,-685.707,0,0
278134.55,204.14,-675.724,0,0
279436.175,195.631,-660.95,0,0
280737.8,192.009,-652.556,0,0
282039.425,188.968,-644.115,0,0
283341,188.993,-638.266,0,0
284643,188.032,-637,0,0
285944,181.665,-636.814,0,0
287246,173.99,-630.522,0,0
288548,167.602,-620.761,0,0
289849,167.585,-607.413,0,0
291151,175.679,-596.91,0,0
292452,187.378,-594.905,0,0
293754,196.669,-600.923,0,0
295056,199.403,-612.615,0,0
296357,192.923,-623.156,0,0
297659,182.901,-627.876,0,0
298960.525,173.465,-629.026,0,0
300262.15,164.312,-628.252,0,0
301563.775,155.944,-625.602,0,0
302865.4,148.389,-622.41,0,0
304167.025,141.015,-617.884,0,0
305468.65,134.86,-612.372,0,0
306770.275,130.023,-605.999,0,0
308071.9,127.24,-600.02,0,0
309373.525,124.961,-595.895,0,0
310675.15,121.565,-591.876,0,0
311976.775,118.525,-587.042,0,0
313278.4,116.393,-582.069,0,0
314580,115.022,-578.085,0,0
315882,113.531,-574.286,0,0
317183,112.358,-571.14,0,0
318485,111.292,-568.694,0,0
319787,109.709,-567.785,0,0
321088,106.117,-567.178,0,0
322390,100.563,-565.874,0,0
323691,93.988,-561.941,0,0
324993,88.7516,-556.091,0,0
326295,84.9614,-549.511,0,0
327596,81.9887,-543.117,0,0
328898,79.4602,-536.077,0,0
330200,78.7297,-528.64,0,0
331501.125,79.87,-522.083,0,0
332802.75,81.4746,-518.137,0,0
334104.375,81.5287,-515.464,0,0
335406.0,79.9524,-512.32,0,0
336707.625,78.1681,-508.117,0,0
338009.25,76.3908,-503.135,0,0
339310.875,75.2657,-496.801,0,0
340612.5,76.0674,-490.033,0,0
341914.125,78.7618,-483.913,0,0
343215.75,82.6751,-479.852,0,0
344517.375,86.4224,-478.041,0,0
345819.0,88.7387,-477.728,0,0
347121,89.4528,-477.935,0,0
348422,88.8201,-477.625,0,0
349724,87.5187,-476.856,0,0
351025,85.4602,-475.327,0,0
352327,83.4436,-472.415,0,0
353629,82.3678,-469.071,0,0
354930,81.6209,-466.098,0,0
356232,80.8883,-462.734,0,0
357534,80.8728,-459.74,0,0
358835,80.3445,-457.274,0,0
360137,79.1601,-454.207,0,0
361438,78.5466,-450.35,0,0
362740.1,78.3803,-446.583,0,0
364041.725,78.6108,-442.756,0,0
365343.35,78.9044,-438.991,0,0
366644.975,79.3154,-434.825,0,0
367946.6,80.5611,-430.011,0,0
369248.225,83.2061,-425.272,0,0
370549.85,87.4262,-421.072,0,0
371851.475,93.4516,-418.954,0,0
373153.1,99.01,-420.301,0,0
374454.725,101.86,-423.509,0,0
375756.35,102.431,-426.264,0,0
377057.975,101.612,-428.112,0,0
378359.6,100.903,-428.567,0,0
379661,100.461,-429.503,0,0
380963,99.0244,-429.945,0,0
382264,98.506,-429.765,0,0
383566,98.2707,-430.529,0,0
384868,97.0966,-433.028,0,0
386169,92.9379,-435.125,0,0
387471,87.427,-434.259,0,0
388773,83.3681,-430.819,0,0
390074,82.1017,-427.256,0,0
391376,81.7132,-425.901,0,0
392677,79.7688,-425.724,0,0
393979,76.29,-424.94,0,0
395280.7,72.1987,-422.755,0,0
396582.325,68.3602,-419.374,0,0
397883.95,65.1542,-415.089,0,0
399185.575,62.6764,-410.067,0,0
400006.6,61.6883,-406.697,0,0