Folder: ML_Dmg_Mehdi_Dataset/Accelerated corrosion test data/2025-10-22_18-00-04 (part 3)

File: sample_5.csv
Frequency (Hz),Impedance (ohms),Phase (Radians),Temperature (C),Humidity (%)
10000.0,3701.64,-3102.19,0,0
11301.625,3412.31,-3073.23,0,0
12603.25,3153.62,-3016.81,0,0
13904.875,2924.54,-2996.12,0,0
15206.5,2718.63,-2940.32,0,0
16508.125,2531.32,-2897.09,0,0
17809.75,2362.98,-2838.29,0,0
19111.375,2215.11,-2754.25,0,0
20413.0,2078.38,-2688.33,0,0
21714.625,1950.42,-2637.45,0,0
23016.25,1841.97,-2559.05,0,0
24317.875,1734.44,-2506.43,0,0
25619.5,1628.28,-2472.45,0,0
26921.1,1539.48,-2417.84,0,0
28222.7,1454.92,-2365.85,0,0
29524.4,1373.51,-2321.13,0,0
30826,1303.73,-2265.56,0,0
32127.6,1240.29,-2210.65,0,0
33429.2,1178.96,-2161.94,0,0
34730.9,1122.48,-2113.75,0,0
36032.5,1070.16,-2066.55,0,0
37334.1,1022.87,-2018.7,0,0
38635.7,980.482,-1970.56,0,0
39937.4,939.499,-1925.89,0,0
41239,895.268,-1890.14,0,0
42540.6,857.806,-1851.39,0,0
43842.225,822.635,-1812.79,0,0
45143.85,793.852,-1770.28,0,0
46445.475,773.213,-1723.16,0,0
47747.1,730.323,-1703.27,0,0
49048.725,705.075,-1667.89,0,0
50350.35,680.432,-1635.53,0,0
51651.975,659.621,-1601.22,0,0
52953.6,630.38,-1576.63,0,0
54255.225,619.561,-1536.48,0,0
55556.85,607.34,-1500.32,0,0
56858.475,572.214,-1487.35,0,0
58160.1,555.125,-1460.18,0,0
59461.7,530.325,-1439.39,0,0
60763.3,517.631,-1409.02,0,0
62065,499.363,-1384.89,0,0
63366.6,486.008,-1359.3,0,0
64668.2,473.626,-1334.11,0,0
65969.8,463.847,-1307.18,0,0
67271.5,450.306,-1284.92,0,0
68573.1,438.124,-1263.05,0,0
69874.7,426.141,-1242.03,0,0
71176.3,412.719,-1223.6,0,0
72478,405.086,-1201.43,0,0
73779.6,394.093,-1182.93,0,0
75081.2,388.632,-1162.27,0,0
76382.825,373.301,-1147.73,0,0
77684.45,362.063,-1130.04,0,0
78986.075,351.943,-1112.64,0,0
80287.7,348.373,-1091.75,0,0
81589.325,337.466,-1075.77,0,0
82890.95,332.695,-1055.46,0,0
84192.575,319.031,-1041.89,0,0
85494.2,312.33,-1024.52,0,0
86795.825,307.142,-1006.54,0,0
88097.45,296.838,-991.282,0,0
89399.075,290.699,-973.966,0,0
90700.7,286.068,-958.318,0,0
92002.3,284.209,-941.73,0,0
93303.9,282.448,-925.075,0,0
94605.6,275.526,-910.922,0,0
95907.2,270.061,-896.364,0,0
97208.8,266.297,-880.753,0,0
98510.4,268.629,-860.918,0,0
99812.1,264.901,-845.704,0,0
101114,262.557,-830.976,0,0
102415,261.042,-816.402,0,0
103717,257.18,-802.754,0,0
105019,252.344,-789.975,0,0
106320.175,246.928,-777.142,0,0
107621.8,242.454,-763.346,0,0
108923.425,238.081,-750.025,0,0
110225.05,233.042,-737.22,0,0
111526.675,225.586,-726.081,0,0
112828.3,222.309,-712.239,0,0
114129.925,220.215,-698.438,0,0
115431.55,216.457,-685.907,0,0
116733.175,211.792,-674.196,0,0
118034.8,203.529,-665.389,0,0
119336.425,201.84,-653.586,0,0
120638.05,199.542,-642.412,0,0
121939.675,196.907,-631.332,0,0
123241,193.275,-620.31,0,0
124543,191.079,-607.349,0,0
125845,190.38,-594.736,0,0
127146,189.043,-583.076,0,0
128448,187.868,-571.173,0,0
129749,184.89,-559.934,0,0
131051,182.545,-547.21,0,0
132353,180.352,-533.371,0,0
133654,180.134,-518.586,0,0
134956,180.657,-503.891,0,0
136258,181.799,-488.967,0,0
137559,184.304,-474.593,0,0
138860.775,187.566,-460.768,0,0
140162.4,190.247,-447.62,0,0
141464.025,192.63,-434.758,0,0
142765.65,195.317,-421.364,0,0
144067.275,197.562,-407.9,0,0
145368.9,199.944,-393.395,0,0
146670.525,202.697,-378.207,0,0
147972.15,206.909,-361.936,0,0
149273.775,211.761,-345.742,0,0
150575.4,217.289,-327.746,0,0
151877.025,225.963,-308.758,0,0
153178.65,236.799,-290.018,0,0
154480,250.275,-272.226,0,0
155782,267.105,-255.575,0,0
157084,285.08,-242.839,0,0
158385,301.784,-231.507,0,0
159687,320.17,-219.478,0,0
160988,341.082,-209.698,0,0
162290,363.411,-203.11,0,0
163592,385.436,-200.261,0,0
164893,404.89,-200.692,0,0
166195,422.336,-200.931,0,0
167497,438.749,-201.096,0,0
168798,455.088,-202.545,0,0
170100,470.879,-203.414,0,0
171401.375,487.68,-205.676,0,0
172703.0,502.192,-208.778,0,0
174004.625,516.65,-213.374,0,0
175306.25,530.006,-215.513,0,0
176607.875,544.693,-217.235,0,0
177909.5,560.492,-220.322,0,0
179211.125,575.605,-224.963,0,0
180512.75,589.519,-228.677,0,0
181814.375,605.246,-231.462,0,0
183116.0,623.654,-235.574,0,0
184417.625,642.548,-242.856,0,0
185719.25,659.422,-250.458,0,0
187021,676.899,-257.561,0,0
188322,696.231,-263.944,0,0
189624,720.994,-273.221,0,0
190926,748.095,-286.565,0,0
192227,776.493,-304.528,0,0
193529,805.151,-330.469,0,0
194831,830.521,-362.879,0,0
196132,852.046,-402.193,0,0
197434,866.782,-447.88,0,0
198735,873.287,-497.172,0,0
200037,871.028,-546.286,0,0
201339,860.375,-594.449,0,0
202640.35,842.873,-641.154,0,0
203941.975,818.336,-681.953,0,0
205243.6,788.725,-719.886,0,0
206545.225,754.257,-750.19,0,0
207846.85,717.277,-775.309,0,0
209148.475,679.44,-793.267,0,0
210450.1,641.799,-804.14,0,0
211751.725,605.201,-810.627,0,0
213053.35,571.524,-810.401,0,0
214354.975,539.161,-808.73,0,0
215656.6,509.248,-804.784,0,0
216958.225,482.509,-796.299,0,0
218259.85,457.229,-787.8,0,0
219561,433.937,-777.959,0,0
220863,413.777,-765.13,0,0
222165,396.201,-751.718,0,0
223466,381.874,-737.248,0,0
224768,370.072,-723.013,0,0
226070,360.773,-709.299,0,0
227371,353.759,-696.218,0,0
228673,348.583,-683.633,0,0
229974,345.516,-671.026,0,0
231276,342.311,-661.407,0,0
232578,340.727,-651.867,0,0
233879,339.993,-643.477,0,0
235180.95,340.609,-636.077,0,0
236482.575,342.209,-629.646,0,0
237784.2,344.907,-624.324,0,0
239085.825,346.891,-622.385,0,0
240387.45,349.404,-620.871,0,0
241689.075,350.666,-621.841,0,0
242990.7,350.89,-623.646,0,0
244292.325,349.799,-625.492,0,0
245593.95,346.83,-627.699,0,0
246895.575,343.138,-628.04,0,0
248197.2,339.034,-625.813,0,0
249498.825,336.27,-620.575,0,0
250800,339.841,-615.004,0,0
252102,347.915,-616.246,0,0
253404,353.439,-625.857,0,0
254705,350.853,-641.171,0,0
256007,328.259,-673.64,0,0
257309,323.695,-673.198,0,0
258610,310.51,-677.458,0,0
259912,297.332,-678.304,0,0
261213,283.128,-678.4,0,0
262515,271.98,-674.74,0,0
263817,259.151,-672.384,0,0
265118,248.041,-668.743,0,0
266420,238.722,-664.026,0,0
267721.55,231.097,-658.906,0,0
269023.175,223.412,-654.476,0,0
270324.8,215.814,-650.364,0,0
271626.425,208.743,-645.349,0,0
272928.05,200.795,-640.542,0,0
274229.675,193.018,-635.221,0,0
275531.3,185.997,-628.986,0,0
276832.925,179.813,-621.933,0,0
278134.55,171.242,-616.072,0,0
279436.175,165.641,-608.472,0,0
280737.8,161.004,-601.315,0,0
282039.425,158.782,-594.251,0,0
283341,160.47,-586.293,0,0
284643,159.04,-580.76,0,0
285944,157.142,-575.795,0,0
287246,155.172,-571.268,0,0
288548,153.187,-567.28,0,0
289849,141.344,-569.288,0,0
291151,139.027,-565.96,0,0
292452,136.272,-562.369,0,0
293754,135.073,-557.596,0,0
295056,141.233,-548.635,0,0
296357,138.499,-543.982,0,0
297659,138.477,-537.884,0,0
298960.525,125.367,-539.302,0,0
300262.15,134.237,-530.941,0,0
301563.775,137.245,-525.869,0,0
302865.4,130.132,-526.21,0,0
304167.025,133.53,-520.781,0,0
305468.65,132.231,-517.511,0,0
306770.275,129.024,-514.801,0,0
308071.9,125.945,-511.956,0,0
309373.525,123.565,-508.794,0,0
310675.15,121.24,-505.558,0,0
311976.775,118.871,-502.397,0,0
313278.4,117.623,-498.613,0,0
314580,113.571,-496.234,0,0
315882,112.673,-492.443,0,0
317183,110.837,-489.204,0,0
318485,109.422,-485.945,0,0
319787,109.016,-482.312,0,0
321088,106.829,-479.702,0,0
322390,105.39,-476.78,0,0
323691,104.166,-473.902,0,0
324993,103.045,-470.873,0,0
326295,101.02,-468.226,0,0
327596,99.5595,-465.114,0,0
328898,97.6491,-462.185,0,0
330200,96.7834,-458.818,0,0
331501.125,95.2845,-455.708,0,0
332802.75,94.5891,-452.313,0,0
334104.375,93.6411,-449.239,0,0
335406.0,91.8856,-446.451,0,0
336707.625,90.8801,-443.526,0,0
338009.25,90.5536,-440.237,0,0
339310.875,89.7722,-437.3,0,0
340612.5,89.1286,-434.282,0,0
341914.125,88.3053,-431.328,0,0
343215.75,86.7632,-428.792,0,0
344517.375,86.2134,-425.93,0,0
345819.0,85.2853,-423.272,0,0
347121,83.7449,-420.838,0,0
348422,82.9521,-418.19,0,0
349724,82.0868,-415.467,0,0
351025,81.4186,-412.698,0,0
352327,80.6367,-409.945,0,0
353629,79.7841,-407.21,0,0
354930,79.3225,-404.312,0,0
356232,78.4498,-401.548,0,0
357534,78.108,-398.656,0,0
358835,77.8479,-395.63,0,0
360137,76.6256,-393.011,0,0
361438,76.0399,-390.148,0,0
362740.1,75.0991,-387.543,0,0
364041.725,75.156,-384.373,0,0
365343.35,74.4906,-381.595,0,0
366644.975,74.227,-378.683,0,0
367946.6,73.9478,-375.849,0,0
369248.225,74.234,-372.865,0,0
370549.85,73.9362,-370.222,0,0
371851.475,74.225,-367.485,0,0
373153.1,74.5636,-364.892,0,0
374454.725,74.6707,-362.622,0,0
375756.35,74.6209,-360.621,0,0
377057.975,74.3421,-358.717,0,0
378359.6,74.0717,-356.608,0,0
379661,73.1363,-354.506,0,0
380963,72.9177,-351.83,0,0
382264,73.6034,-348.968,0,0
383566,72.7742,-346.875,0,0
384868,72.0954,-344.584,0,0
386169,71.4532,-342.088,0,0
387471,71.1006,-339.375,0,0
388773,70.9042,-336.57,0,0
390074,70.6444,-333.723,0,0
391376,70.607,-330.834,0,0
392677,70.716,-327.958,0,0
393979,70.7111,-325.086,0,0
395280.7,71.1801,-322.051,0,0
396582.325,71.9409,-318.866,0,0
397883.95,71.7272,-316.117,0,0
399185.575,72.0985,-313.16,0,0
400006.6,72.529,-311.246,0,0

File: sample_6.csv
Frequency (Hz),Impedance (ohms),Phase (Radians),Temperature (C),Humidity (%)
10000.0,4149.5,-6633.4,0,0
11301.625,3523.85,-6233.39,0,0
12603.25,3027.62,-5853.48,0,0
13904.875,2628.61,-5509.4,0,0
15206.5,2302.74,-5189.7,0,0
16508.125,2034.59,-4896.93,0,0
17809.75,1811.94,-4631.29,0,0
19111.375,1624.26,-4389.12,0,0
20413.0,1464.2,-4169.94,0,0
21714.625,1327.98,-3967.18,0,0
23016.25,1210.17,-3779.67,0,0
24317.875,1111.71,-3613.47,0,0
25619.5,1023.08,-3457.49,0,0
26921.1,945.308,-3312.67,0,0
28222.7,876.901,-3181.71,0,0
29524.4,813.819,-3054.52,0,0
30826,765.734,-2940.69,0,0
32127.6,715.07,-2834.53,0,0
33429.2,674.169,-2737.2,0,0
34730.9,630.416,-2644.7,0,0
36032.5,592.311,-2556.65,0,0
37334.1,559.007,-2470.83,0,0
38635.7,530.234,-2390.16,0,0
39937.4,507.569,-2314.95,0,0
41239,485.655,-2248.86,0,0
42540.6,461.335,-2185.78,0,0
43842.225,440.889,-2118.97,0,0
45143.85,426.198,-2059.77,0,0
46445.475,413.009,-2006.85,0,0
47747.1,398.599,-1957.53,0,0
49048.725,384.491,-1911.91,0,0
50350.35,366.793,-1870.08,0,0
51651.975,347.58,-1824.23,0,0
52953.6,333.619,-1777.97,0,0
54255.225,319.295,-1734.96,0,0
55556.85,309.589,-1692.87,0,0
56858.475,299.763,-1650.77,0,0
58160.1,296.505,-1615.09,0,0
59461.7,287.639,-1585.91,0,0
60763.3,275.018,-1555.3,0,0
62065,260.459,-1520.26,0,0
63366.6,256.428,-1482.78,0,0
64668.2,250.062,-1456.24,0,0
65969.8,242.424,-1425.15,0,0
67271.5,236.785,-1397.81,0,0
68573.1,230.003,-1371.1,0,0
69874.7,223.543,-1345.5,0,0
71176.3,216.38,-1320.54,0,0
72478,209.696,-1295.01,0,0
73779.6,203.517,-1270.43,0,0
75081.2,197.784,-1246.71,0,0
76382.825,191.664,-1223.52,0,0
77684.45,185.713,-1200.25,0,0
78986.075,180.154,-1177.05,0,0
80287.7,175.076,-1153.96,0,0
81589.325,171.054,-1130.59,0,0
82890.95,167.874,-1108.32,0,0
84192.575,165.096,-1086.02,0,0
85494.2,164.077,-1064.07,0,0
86795.825,163.941,-1044.33,0,0
88097.45,163.747,-1025.45,0,0
89399.075,164.446,-1007.13,0,0
90700.7,165.165,-992.806,0,0
92002.3,162.142,-977.351,0,0
93303.9,160.41,-961.756,0,0
94605.6,159.637,-945.418,0,0
95907.2,159.372,-930.299,0,0
97208.8,158.068,-917.533,0,0
98510.4,155.593,-902.954,0,0
99812.1,155.096,-888.658,0,0
101114,154.421,-876.739,0,0
102415,151.641,-864.941,0,0
103717,148.328,-853.551,0,0
105019,142.727,-842.128,0,0
106320.175,134.24,-826.575,0,0
107621.8,130.588,-805.23,0,0
108923.425,132.106,-785.603,0,0
110225.05,135.327,-768.604,0,0
111526.675,141.663,-753.308,0,0
112828.3,148.045,-744.821,0,0
114129.925,148.726,-737.497,0,0
115431.55,148.766,-728.387,0,0
116733.175,148.876,-723.003,0,0
118034.8,140.882,-715.18,0,0
119336.425,135.06,-699.617,0,0
120638.05,134.957,-683.226,0,0
121939.675,137.721,-671.726,0,0
123241,136.481,-660.992,0,0
124543,135.706,-649.23,0,0
125845,134.473,-637.291,0,0
127146,133.279,-624.071,0,0
128448,133.742,-609.392,0,0
129749,136.406,-596.127,0,0
131051,138.898,-583.96,0,0
132353,141.641,-571.833,0,0
133654,145.033,-560.446,0,0
134956,148.37,-549.587,0,0
136258,152.276,-539.366,0,0
137559,156.053,-530.658,0,0
138860.775,158.565,-522.425,0,0
140162.4,160.03,-513.871,0,0
141464.025,161.737,-504.673,0,0
142765.65,162.34,-496.169,0,0
144067.275,163.008,-484.865,0,0
145368.9,166.132,-474.821,0,0
146670.525,167.612,-466.031,0,0
147972.15,167.365,-456.388,0,0
149273.775,167.325,-443.911,0,0
150575.4,169.305,-430.276,0,0
151877.025,172.634,-416.112,0,0
153178.65,179.407,-402.975,0,0
154480,184.273,-392.865,0,0
155782,189.169,-379.827,0,0
157084,197.081,-368.942,0,0
158385,202.606,-360.611,0,0
159687,206.86,-350.074,0,0
160988,211.291,-338.988,0,0
162290,216.25,-326.784,0,0
163592,222.421,-314.715,0,0
164893,227.842,-303.274,0,0
166195,232.149,-289.619,0,0
167497,238.116,-273.629,0,0
168798,246.616,-256.928,0,0
170100,256.102,-240.742,0,0
171401.375,266.118,-223.912,0,0
172703.0,276.702,-205.339,0,0
174004.625,289.075,-184.564,0,0
175306.25,304.783,-161.655,0,0
176607.875,324.321,-137.471,0,0
177909.5,348.786,-112.512,0,0
179211.125,378.532,-87.8382,0,0
180512.75,414.184,-65.7591,0,0
181814.375,452.84,-45.8155,0,0
183116.0,495.502,-26.9904,0,0
184417.625,544.722,-7.52106,0,0
185719.25,603.472,10.3289,0,0
187021,675.661,23.4019,0,0
188322,763.096,24.668,0,0
189624,864.326,4.31919,0,0
190926,968.808,-45.5966,0,0
192227,1065.47,-126.499,0,0
193529,1143.08,-235.279,0,0
194831,1191.89,-364.759,0,0
196132,1206.09,-504.287,0,0
197434,1182.77,-640.106,0,0
198735,1129.53,-758.998,0,0
200037,1056.56,-855.144,0,0
201339,971.95,-928.571,0,0
202640.35,881.848,-978.181,0,0
203941.975,794.649,-1005.77,0,0
205243.6,715.501,-1017.61,0,0
206545.225,644.359,-1017.98,0,0
207846.85,581.9,-1010.79,0,0
209148.475,527.632,-998.614,0,0
210450.1,480.253,-983.83,0,0
211751.725,436.799,-967.711,0,0
213053.35,398.279,-947.824,0,0
214354.975,364.861,-926.775,0,0
215656.6,336.021,-904.572,0,0
216958.225,311.611,-882.456,0,0
218259.85,290.365,-860.798,0,0
219561,271.799,-839.426,0,0
220863,255.817,-818.231,0,0
222165,241.954,-797.117,0,0
223466,230.549,-775.887,0,0
224768,221.814,-754.905,0,0
226070,216.246,-734.794,0,0
227371,212.629,-716.957,0,0
228673,209.314,-700.673,0,0
229974,206.521,-684.296,0,0
231276,205.098,-667.891,0,0
232578,205.457,-651.767,0,0
233879,207.798,-636.059,0,0
235180.95,212.359,-621.314,0,0
236482.575,218.786,-607.806,0,0
237784.2,227.448,-596.022,0,0
239085.825,238.084,-586.513,0,0
240387.45,250.307,-579.942,0,0
241689.075,263.562,-576.855,0,0
242990.7,276.933,-577.507,0,0
244292.325,289.98,-582.333,0,0
245593.95,300.187,-592.242,0,0
246895.575,305.375,-604.136,0,0
248197.2,306.988,-615.65,0,0
249498.825,305.92,-625.936,0,0
250800,306.004,-635.832,0,0
252102,303.978,-649.557,0,0
253404,297.251,-664.022,0,0
254705,285.55,-677.491,0,0
256007,269.746,-687.306,0,0
257309,252.437,-692.594,0,0
258610,235.463,-693.948,0,0
259912,219.73,-692.662,0,0
261213,205.055,-689.244,0,0
262515,191.833,-684.206,0,0
263817,180.184,-678.238,0,0
265118,169.761,-671.83,0,0
266420,160.567,-664.994,0,0
267721.55,152.378,-658.05,0,0
269023.175,144.935,-651.173,0,0
270324.8,138.105,-644.234,0,0
271626.425,131.945,-637.349,0,0
272928.05,126.245,-630.403,0,0
274229.675,121.044,-623.515,0,0
275531.3,116.27,-616.692,0,0
276832.925,111.912,-609.89,0,0
278134.55,107.943,-603.05,0,0
279436.175,104.428,-596.031,0,0
280737.8,102.012,-589.122,0,0
282039.425,100.128,-583.181,0,0
283341,97.859,-577.78,0,0
284643,95.7428,-572.141,0,0
285944,94.2987,-566.785,0,0
287246,92.8891,-562.35,0,0
288548,90.7421,-558.137,0,0
289849,88.5149,-553.612,0,0
291151,86.4999,-549.099,0,0
292452,84.6421,-544.743,0,0
293754,82.6467,-540.725,0,0
295056,80.2883,-536.351,0,0
296357,78.0579,-531.579,0,0
297659,76.3629,-526.538,0,0
298960.525,75.4426,-521.774,0,0
300262.15,74.455,-517.844,0,0
301563.775,73.0239,-513.96,0,0
302865.4,71.613,-509.972,0,0
304167.025,70.3681,-505.718,0,0
305468.65,69.3654,-501.71,0,0
306770.275,68.3402,-497.983,0,0
308071.9,67.1332,-494.337,0,0
309373.525,66.0056,-490.489,0,0
310675.15,65.0156,-486.871,0,0
311976.775,63.9847,-483.267,0,0
313278.4,62.909,-479.611,0,0
314580,61.9036,-476.037,0,0
315882,61.0021,-472.45,0,0
317183,60.0828,-468.936,0,0
318485,59.1901,-465.385,0,0
319787,58.3975,-461.846,0,0
321088,57.6715,-458.417,0,0
322390,56.9804,-455.008,0,0
323691,56.3849,-451.698,0,0
324993,55.6807,-448.467,0,0
326295,54.9091,-445.177,0,0
327596,54.2706,-441.87,0,0
328898,53.6325,-438.582,0,0
330200,53.1533,-435.255,0,0
331501.125,52.6651,-432.003,0,0
332802.75,52.2907,-428.797,0,0
334104.375,51.9239,-425.705,0,0
335406.0,51.5394,-422.599,0,0
336707.625,51.1599,-419.525,0,0
338009.25,50.89,-416.488,0,0
339310.875,50.5457,-413.482,0,0
340612.5,50.2671,-410.412,0,0
341914.125,50.062,-407.397,0,0
343215.75,50.0199,-404.402,0,0
344517.375,49.8892,-401.63,0,0
345819.0,49.7535,-398.778,0,0
347121,49.6895,-395.892,0,0
348422,49.7436,-393.042,0,0
349724,49.9247,-390.31,0,0
351025,50.0627,-387.699,0,0
352327,50.2735,-385.21,0,0
353629,50.4213,-382.85,0,0
354930,50.527,-380.603,0,0
356232,50.4367,-378.409,0,0
357534,50.2735,-376.168,0,0
358835,50.114,-373.855,0,0
360137,49.9892,-371.531,0,0
361438,49.7687,-369.265,0,0
362740.1,49.5705,-366.886,0,0
364041.725,49.3839,-364.438,0,0
365343.35,49.2837,-362.047,0,0
366644.975,49.282,-359.641,0,0
367946.6,49.223,-357.273,0,0
369248.225,49.1682,-355.009,0,0
370549.85,49.1609,-352.61,0,0
371851.475,49.236,-350.301,0,0
373153.1,49.3943,-348.113,0,0
374454.725,49.3621,-346.153,0,0
375756.35,49.1105,-344.198,0,0
377057.975,48.7098,-341.991,0,0
378359.6,48.4087,-339.643,0,0
379661,48.1513,-337.22,0,0
380963,47.9441,-334.677,0,0
382264,47.882,-332.052,0,0
383566,48.1483,-329.61,0,0
384868,48.0947,-327.459,0,0
386169,48.0074,-325.009,0,0
387471,47.9175,-322.572,0,0
388773,47.8768,-320.093,0,0
390074,47.9091,-317.539,0,0
391376,47.9538,-314.969,0,0
392677,48.0437,-312.464,0,0
393979,48.1496,-309.852,0,0
395280.7,48.2952,-307.248,0,0
396582.325,48.5049,-304.616,0,0
397883.95,48.7063,-301.932,0,0
399185.575,48.993,-299.231,0,0
400006.6,49.1573,-297.531,0,0