Folder: ML_Dmg_Mehdi_Dataset/Accelerated corrosion test data/2025-10-20_13-55-17

Note: README.md
# ML_Dmg_Mehdi_Dataset

File: sample_1.csv
Frequency (Hz),Impedance (ohms),Phase (Radians),Temperature (C),Humidity (%)
10000.0,240.595,-12237.4,0,0
11301.625,214.611,-10838.3,0,0
12603.25,195.045,-9735.62,0,0
13904.875,183.522,-8807.79,0,0
15206.5,191.91,-8077.23,0,0
16508.125,154.963,-7449.19,0,0
17809.75,147.026,-6910.93,0,0
19111.375,134.982,-6441.24,0,0
20413.0,158.551,-5995.86,0,0
21714.625,136.503,-5678.26,0,0
23016.25,122.106,-5377.14,0,0
24317.875,112.37,-5086.06,0,0
25619.5,104.589,-4820.01,0,0
26921.1,114.996,-4568.43,0,0
28222.7,110.768,-4365.72,0,0
29524.4,107.446,-4199.81,0,0
30826,101.543,-4009.8,0,0
32127.6,97.4235,-3854.3,0,0
33429.2,89.0278,-3708.6,0,0
34730.9,82.4013,-3566.57,0,0
36032.5,77.8415,-3435.26,0,0
37334.1,75.2543,-3312.34,0,0
38635.7,72.8975,-3198.37,0,0
39937.4,70.997,-3091.46,0,0
41239,72.5418,-2992.42,0,0
42540.6,71.007,-2899.69,0,0
43842.225,67.7232,-2812.2,0,0
45143.85,68.3257,-2730.35,0,0
46445.475,64.8644,-2652.44,0,0
47747.1,64.1265,-2579.06,0,0
49048.725,61.5971,-2508.72,0,0
50350.35,59.531,-2442.29,0,0
51651.975,58.5559,-2378.54,0,0
52953.6,57.752,-2317.18,0,0
54255.225,56.5693,-2260.21,0,0
55556.85,55.5332,-2204.62,0,0
56858.475,54.7012,-2151.42,0,0
58160.1,54.374,-2100.53,0,0
59461.7,54.3335,-2052.15,0,0
60763.3,54.2769,-2004.94,0,0
62065,52.9758,-1961.16,0,0
63366.6,52.4153,-1917.53,0,0
64668.2,52.8463,-1875.19,0,0
65969.8,55.0498,-1837.52,0,0
67271.5,53.4577,-1800.84,0,0
68573.1,52.8853,-1765.05,0,0
69874.7,52.142,-1730.75,0,0
71176.3,50.0524,-1696.48,0,0
72478,48.2944,-1662.68,0,0
73779.6,47.969,-1629.22,0,0
75081.2,48.2854,-1596.96,0,0
76382.825,49.0413,-1565.9,0,0
77684.45,50.114,-1536.51,0,0
78986.075,51.7275,-1508.92,0,0
80287.7,50.9075,-1482.58,0,0
81589.325,50.3605,-1454.57,0,0
82890.95,50.8639,-1427.83,0,0
84192.575,52.2907,-1401.47,0,0
85494.2,54.5115,-1376.81,0,0
86795.825,55.3755,-1353.46,0,0
88097.45,55.9046,-1329.96,0,0
89399.075,57.5603,-1305.41,0,0
90700.7,61.0949,-1282.14,0,0
92002.3,66.9507,-1260.69,0,0
93303.9,74.5375,-1243.37,0,0
94605.6,73.6412,-1236.54,0,0
95907.2,67.0456,-1217.82,0,0
97208.8,65.0725,-1197.43,0,0
98510.4,64.5615,-1177.1,0,0
99812.1,63.524,-1157.63,0,0
101114,63.0789,-1137.49,0,0
102415,63.4707,-1115.78,0,0
103717,68.0022,-1094.66,0,0
105019,74.7224,-1077.38,0,0
106320.175,80.6296,-1061.02,0,0
107621.8,86.8428,-1048,0,0
108923.425,91.0745,-1036.57,0,0
110225.05,93.8578,-1027.94,0,0
111526.675,94.2777,-1015.37,0,0
112828.3,97.4726,-1005.54,0,0
114129.925,96.8323,-998.253,0,0
115431.55,93.768,-989.622,0,0
116733.175,88.9022,-978.359,0,0
118034.8,83.8735,-964.43,0,0
119336.425,81.7729,-948.823,0,0
120638.05,82.0247,-934.526,0,0
121939.675,80.283,-921.793,0,0
123241,78.7292,-906.89,0,0
124543,78.7002,-891.924,0,0
125845,79.2613,-877.075,0,0
127146,80.2977,-862.605,0,0
128448,82.4427,-847.844,0,0
129749,84.9149,-833.702,0,0
131051,89.5175,-820.293,0,0
132353,93.9211,-809.33,0,0
133654,97.0829,-798.528,0,0
134956,100.578,-787.906,0,0
136258,103.64,-777.434,0,0
137559,108.894,-767.854,0,0
138860.775,111.401,-762.069,0,0
140162.4,110.946,-754.473,0,0
141464.025,110.106,-744.522,0,0
142765.65,110.376,-733.384,0,0
144067.275,112.191,-721.988,0,0
145368.9,114.122,-711.022,0,0
146670.525,117.442,-700.744,0,0
147972.15,119.619,-692.303,0,0
149273.775,121.022,-681.711,0,0
150575.4,122.981,-673.485,0,0
151877.025,121.454,-662.713,0,0
153178.65,120.907,-647.742,0,0
154480,124.404,-631.504,0,0
155782,130.861,-614.505,0,0
157084,142.509,-599.417,0,0
158385,154.827,-589.686,0,0
159687,163.486,-577.898,0,0
160988,181.781,-566.378,0,0
162290,200.255,-565.305,0,0
163592,211.447,-566.117,0,0
164893,225.104,-565.727,0,0
166195,239.712,-571.538,0,0
167497,248.442,-582.136,0,0
168798,249.033,-595.361,0,0
170100,241.257,-604.257,0,0
171401.375,232.434,-602.777,0,0
172703.0,229.833,-598.745,0,0
174004.625,226.503,-596.05,0,0
175306.25,224.801,-592.906,0,0
176607.875,222.631,-591.538,0,0
177909.5,219.282,-588.254,0,0
179211.125,214.427,-586.134,0,0
180512.75,207.033,-581.716,0,0
181814.375,200.141,-573.632,0,0
183116.0,193.626,-562.283,0,0
184417.625,188.959,-549.776,0,0
185719.25,186.68,-534.771,0,0
187021,186.53,-519.409,0,0
188322,189.849,-503.581,0,0
189624,193.364,-489.719,0,0
190926,196.659,-474.645,0,0
192227,201.957,-457.147,0,0
193529,210.98,-439.662,0,0
194831,221.819,-423.451,0,0
196132,234.944,-406.402,0,0
197434,250.939,-390.945,0,0
198735,267.818,-376.645,0,0
200037,286.33,-360.163,0,0
201339,310.392,-343.739,0,0
202640.35,342.571,-326.039,0,0
203941.975,385.694,-316.217,0,0
205243.6,436.72,-321.831,0,0
206545.225,482.688,-345.992,0,0
207846.85,514.699,-381.742,0,0
209148.475,534.273,-421.505,0,0
210450.1,535.298,-463.091,0,0
211751.725,521.447,-484.427,0,0
213053.35,517.987,-485.335,0,0
214354.975,533.137,-493.124,0,0
215656.6,543.469,-509.459,0,0
216958.225,552.596,-525.507,0,0
218259.85,561.676,-541.48,0,0
219561,575.323,-556.378,0,0
220863,594.205,-579.898,0,0
222165,611.812,-615.067,0,0
223466,617.857,-660.907,0,0
224768,611.15,-709.109,0,0
226070,592.461,-754.547,0,0
227371,562.997,-795.687,0,0
228673,524.202,-828.565,0,0
229974,479.679,-848.203,0,0
231276,436.529,-854.988,0,0
232578,399.313,-851.776,0,0
233879,372.14,-845.504,0,0
235180.95,349.018,-842.408,0,0
236482.575,324.886,-838.565,0,0
237784.2,301.367,-833.941,0,0
239085.825,277.782,-825.181,0,0
240387.45,258.031,-814.169,0,0
241689.075,241.195,-802.664,0,0
242990.7,226.353,-790.487,0,0
244292.325,214.472,-779.134,0,0
245593.95,202.268,-769.295,0,0
246895.575,190.229,-758.113,0,0
248197.2,179.603,-745.79,0,0
249498.825,170.844,-732.993,0,0
250800,163.751,-720.549,0,0
252102,157.692,-708.723,0,0
253404,151.864,-696.711,0,0
254705,147.815,-683.887,0,0
256007,145.463,-672.077,0,0
257309,143.583,-660.614,0,0
258610,142.645,-648.911,0,0
259912,144.258,-637.067,0,0
261213,148.15,-627.337,0,0
262515,152.63,-619.978,0,0
263817,157.652,-614.104,0,0
265118,163.594,-610.167,0,0
266420,170.223,-610.017,0,0
267721.55,174.416,-615.298,0,0
269023.175,171.184,-622.903,0,0
270324.8,161.202,-626.076,0,0
271626.425,150.34,-622.361,0,0
272928.05,142.917,-614.097,0,0
274229.675,139.209,-605.257,0,0
275531.3,138.051,-596.961,0,0
276832.925,138.772,-589.913,0,0
278134.55,140.348,-585.085,0,0
279436.175,140.735,-581.975,0,0
280737.8,140.465,-578.317,0,0
282039.425,140.745,-575.75,0,0
283341,138.991,-573.045,0,0
284643,137.791,-569.909,0,0
285944,135.486,-566.956,0,0
287246,132.33,-562.362,0,0
288548,130.214,-555.132,0,0
289849,132.589,-547.772,0,0
291151,135.397,-544.781,0,0
292452,135.603,-542.191,0,0
293754,134.934,-538.4,0,0
295056,134.966,-533.115,0,0
296357,136.529,-526.939,0,0
297659,140.302,-521.163,0,0
298960.525,145.695,-516.987,0,0
300262.15,151.687,-514.839,0,0
301563.775,157.365,-514.016,0,0
302865.4,163.637,-515.279,0,0
304167.025,168.058,-517.929,0,0
305468.65,172.177,-521.275,0,0
306770.275,176.265,-526.119,0,0
308071.9,177.727,-533.318,0,0
309373.525,176.563,-540.064,0,0
310675.15,174.181,-546.004,0,0
311976.775,170.304,-552.221,0,0
313278.4,163.919,-556.948,0,0
314580,157.838,-559.486,0,0
315882,151.768,-562.308,0,0
317183,144.112,-564.353,0,0
318485,135.772,-564.636,0,0
319787,127.28,-563.093,0,0
321088,119.348,-560.021,0,0
322390,112.126,-555.033,0,0
323691,107.16,-548.86,0,0
324993,104.311,-543.094,0,0
326295,102.784,-538.253,0,0
327596,101.832,-535.056,0,0
328898,100.353,-532.831,0,0
330200,98.2433,-531.171,0,0
331501.125,95.4764,-529.43,0,0
332802.75,92.3071,-527.676,0,0
334104.375,88.4276,-525.583,0,0
335406.0,84.3154,-522.497,0,0
336707.625,80.6973,-518.75,0,0
338009.25,77.4641,-514.857,0,0
339310.875,74.7477,-510.631,0,0
340612.5,72.4029,-506.62,0,0
341914.125,70.1572,-502.686,0,0
343215.75,67.8689,-498.788,0,0
344517.375,65.7105,-494.748,0,0
345819.0,63.6404,-490.584,0,0
347121,61.6358,-486.094,0,0
348422,60.1429,-481.361,0,0
349724,59.1296,-476.865,0,0
351025,58.2033,-472.416,0,0
352327,57.6969,-467.993,0,0
353629,57.2181,-463.974,0,0
354930,56.8337,-459.96,0,0
356232,56.5971,-456.009,0,0
357534,56.3773,-452.16,0,0
358835,56.1559,-448.276,0,0
360137,56.2607,-444.344,0,0
361438,56.5485,-440.717,0,0
362740.1,56.7089,-436.986,0,0
364041.725,57.0378,-433.3,0,0
365343.35,57.6173,-429.605,0,0
366644.975,58.2312,-426.337,0,0
367946.6,58.4513,-422.639,0,0
369248.225,59.2636,-418.289,0,0
370549.85,61.0536,-414.009,0,0
371851.475,63.7669,-410.119,0,0
373153.1,67.02,-407.469,0,0
374454.725,70.1469,-405.765,0,0
375756.35,72.8586,-404.771,0,0
377057.975,75.1301,-404.186,0,0
378359.6,77.1463,-403.975,0,0
379661,78.5685,-403.844,0,0
380963,80.2736,-403.448,0,0
382264,82.267,-404.384,0,0
383566,83.2599,-406.342,0,0
384868,82.5195,-408.65,0,0
386169,80.3418,-410.053,0,0
387471,77.6135,-410.421,0,0
388773,74.7627,-409.561,0,0
390074,72.5934,-407.852,0,0
391376,71.1085,-406.4,0,0
392677,69.2895,-405.334,0,0
393979,66.854,-403.863,0,0
395280.7,64.3662,-401.637,0,0
396582.325,62.0218,-398.661,0,0
397883.95,60.3059,-395.138,0,0
399185.575,59.3321,-391.477,0,0
400006.6,59.0286,-389.281,0,0

File: sample_2.csv
Frequency (Hz),Impedance (ohms),Phase (Radians),Temperature (C),Humidity (%)
10000.0,222.365,-11494.7,0,0
11301.625,197.708,-10179.8,0,0
12603.25,178.423,-9138.85,0,0
13904.875,184.777,-8288.43,0,0
15206.5,160.535,-7595.01,0,0
16508.125,139.562,-6995.52,0,0
17809.75,129.429,-6485.02,0,0
19111.375,125.7,-6042.98,0,0
20413.0,115.544,-5656.81,0,0
21714.625,125.749,-5327.35,0,0
23016.25,110.105,-5029.05,0,0
24317.875,101.061,-4761.77,0,0
25619.5,95.4673,-4516.08,0,0
26921.1,92.9846,-4296.7,0,0
28222.7,87.9248,-4096.02,0,0
29524.4,92.1447,-3911.03,0,0
30826,85.8909,-3756.54,0,0
32127.6,80.7748,-3601.69,0,0
33429.2,78.2824,-3462.58,0,0
34730.9,74.4044,-3331.22,0,0
36032.5,71.6345,-3208.89,0,0
37334.1,69.6579,-3095.01,0,0
38635.7,67.6827,-2989.16,0,0
39937.4,65.9035,-2890.07,0,0
41239,64.683,-2796.37,0,0
42540.6,63.5464,-2709.35,0,0
43842.225,62.0439,-2627.3,0,0
45143.85,61.1544,-2548.92,0,0
46445.475,60.2332,-2476.41,0,0
47747.1,59.6119,-2406.4,0,0
49048.725,59.5619,-2342.59,0,0
50350.35,56.9704,-2279.91,0,0
51651.975,55.8358,-2220.35,0,0
52953.6,54.1446,-2162.68,0,0
54255.225,53.463,-2107.74,0,0
55556.85,53.0781,-2055.52,0,0
56858.475,53.0912,-2005.45,0,0
58160.1,53.2857,-1958.01,0,0
59461.7,53.8929,-1911.72,0,0
60763.3,55.5907,-1868.97,0,0
62065,58.4078,-1830.68,0,0
63366.6,54.9587,-1793.18,0,0
64668.2,52.3966,-1755.33,0,0
65969.8,50.2138,-1716.11,0,0
67271.5,50.4637,-1678.49,0,0
68573.1,52.9102,-1644.43,0,0
69874.7,55.0571,-1613.7,0,0
71176.3,52.1355,-1585.6,0,0
72478,47.1681,-1555.01,0,0
73779.6,44.4366,-1521.78,0,0
75081.2,44.5931,-1489.33,0,0
76382.825,46.4373,-1458.9,0,0
77684.45,49.2523,-1430.54,0,0
78986.075,52.4956,-1406.26,0,0
80287.7,51.2822,-1384.52,0,0
81589.325,48.6739,-1359.53,0,0
82890.95,47.4508,-1333.56,0,0
84192.575,48.2242,-1308.86,0,0
85494.2,48.796,-1285.22,0,0
86795.825,49.7195,-1262.9,0,0
88097.45,50.1012,-1241.4,0,0
89399.075,50.7857,-1220.26,0,0
90700.7,50.4291,-1199.51,0,0
92002.3,52.2486,-1178.14,0,0
93303.9,54.8324,-1159.44,0,0
94605.6,54.7808,-1142.94,0,0
95907.2,53.7564,-1123.22,0,0
97208.8,57.1498,-1106.25,0,0
98510.4,56.4964,-1092.14,0,0
99812.1,52.5014,-1076.62,0,0
101114,49.8673,-1059.57,0,0
102415,46.6542,-1039.34,0,0
103717,45.6336,-1018.16,0,0
105019,48.9318,-998.113,0,0
106320.175,53.3546,-980.627,0,0
107621.8,57.363,-969.009,0,0
108923.425,55.8506,-957.087,0,0
110225.05,52.1675,-941.945,0,0
111526.675,50.8657,-923.955,0,0
112828.3,51.0106,-906.629,0,0
114129.925,52.3704,-889.226,0,0
115431.55,54.9823,-872.568,0,0
116733.175,57.9455,-856.716,0,0
118034.8,61.8942,-841.918,0,0
119336.425,65.9566,-828.917,0,0
120638.05,69.187,-818.058,0,0
121939.675,69.1774,-807.187,0,0
123241,68.905,-794.225,0,0
124543,69.1803,-781.252,0,0
125845,68.9242,-767.147,0,0
127146,69.8824,-751.933,0,0
128448,72.5219,-737.065,0,0
129749,75.9478,-723.313,0,0
131051,79.9959,-710.949,0,0
132353,81.977,-699.68,0,0
133654,83.3764,-687.494,0,0
134956,83.8292,-674.702,0,0
136258,85.0752,-660.103,0,0
137559,87.4541,-645.326,0,0
138860.775,89.5796,-630.95,0,0
140162.4,91.4478,-614.42,0,0
141464.025,96.53,-595.593,0,0
142765.65,105.009,-579.209,0,0
144067.275,113.033,-563.153,0,0
145368.9,122.508,-546.98,0,0
146670.525,133.185,-530.996,0,0
147972.15,146.771,-513.9,0,0
149273.775,166.76,-496.912,0,0
150575.4,193.994,-488.007,0,0
151877.025,220.587,-492.276,0,0
153178.65,236.654,-505.484,0,0
154480,241.658,-517.342,0,0
155782,243.311,-523.662,0,0
157084,241.469,-528.713,0,0
158385,237.426,-529.273,0,0
159687,233.523,-524.12,0,0
160988,234.895,-517.491,0,0
162290,244.391,-517.481,0,0
163592,238.917,-526.141,0,0
164893,225.309,-525.618,0,0
166195,211.602,-513.872,0,0
167497,202.025,-499.061,0,0
168798,195.544,-477.067,0,0
170100,195.54,-454.697,0,0
171401.375,198.521,-432.298,0,0
172703.0,206.002,-409.228,0,0
174004.625,216.098,-386.522,0,0
175306.25,231.554,-362.777,0,0
176607.875,253.107,-342.763,0,0
177909.5,279.955,-331.347,0,0
179211.125,301.766,-327.012,0,0
180512.75,312.816,-326.817,0,0
181814.375,318.68,-313.792,0,0
183116.0,331.534,-294.279,0,0
184417.625,354.184,-270.928,0,0
185719.25,383.87,-253.747,0,0
187021,416.693,-237.976,0,0
188322,456.679,-227.577,0,0
189624,493.299,-221.68,0,0
190926,537.473,-211.033,0,0
192227,595.506,-206.812,0,0
193529,665.464,-218.105,0,0
194831,733.601,-253.864,0,0
196132,790.778,-305.354,0,0
197434,839.736,-366.51,0,0
198735,875.972,-443.152,0,0
200037,893.918,-526.284,0,0
201339,891.148,-614.571,0,0
202640.35,863.27,-693.194,0,0
203941.975,822.294,-757.02,0,0
205243.6,778.353,-812.583,0,0
206545.225,720.398,-849.596,0,0
207846.85,664.908,-867.795,0,0
209148.475,627.146,-877.77,0,0
210450.1,586.966,-896.734,0,0
211751.725,536.399,-907.113,0,0
213053.35,491.207,-899.471,0,0
214354.975,454.895,-887.527,0,0
215656.6,424.472,-873.081,0,0
216958.225,401.026,-855.527,0,0
218259.85,384.267,-839.311,0,0
219561,371.676,-824.455,0,0
220863,361.677,-811.226,0,0
222165,356.831,-799.882,0,0
223466,352.56,-792.981,0,0
224768,348.713,-787.043,0,0
226070,345.72,-782.896,0,0
227371,344.611,-780.991,0,0
228673,344.401,-784.779,0,0
229974,338.262,-792.766,0,0
231276,327.736,-799.431,0,0
232578,314.192,-805.142,0,0
233879,298.018,-807.844,0,0
235180.95,281.462,-807.462,0,0
236482.575,265.259,-805.209,0,0
237784.2,248.418,-800.818,0,0
239085.825,233.481,-794.198,0,0
240387.45,218.816,-786.192,0,0
241689.075,206.045,-776.052,0,0
242990.7,196.66,-764.899,0,0
244292.325,189.965,-756.135,0,0
245593.95,183.318,-750.673,0,0
246895.575,172.526,-747.338,0,0
248197.2,158.126,-739.444,0,0
249498.825,144.563,-727.725,0,0
250800,132.821,-712.493,0,0
252102,125.156,-694.588,0,0
253404,121.795,-677.497,0,0
254705,120.13,-661.532,0,0
256007,120.67,-645.57,0,0
257309,123.941,-630.993,0,0
258610,128.815,-618.173,0,0
259912,135.278,-607.108,0,0
261213,142.822,-598.491,0,0
262515,150.612,-592.43,0,0
263817,157.7,-588.203,0,0
265118,164.639,-585.483,0,0
266420,170.375,-584.999,0,0
267721.55,174.821,-585.138,0,0
269023.175,177.305,-586.633,0,0
270324.8,176.969,-585.955,0,0
271626.425,178.005,-582.9,0,0
272928.05,180.949,-578.105,0,0
274229.675,189.403,-573.971,0,0
275531.3,202.149,-576.538,0,0
276832.925,211.842,-589.167,0,0
278134.55,211.688,-605.177,0,0
279436.175,204.361,-618.013,0,0
280737.8,193.534,-626.346,0,0
282039.425,182.282,-632.121,0,0
283341,167.148,-634.673,0,0
284643,154.428,-631.354,0,0
285944,141.224,-628.099,0,0
287246,126.528,-618.865,0,0
288548,116.475,-601.927,0,0
289849,117.604,-582.252,0,0
291151,127.606,-568.633,0,0
292452,142.667,-564.818,0,0
293754,150.962,-573.365,0,0
295056,148.499,-578.059,0,0
296357,151.368,-577.349,0,0
297659,154.755,-588.225,0,0
298960.525,145.509,-597.442,0,0
300262.15,134.257,-599.272,0,0
301563.775,125.863,-596.669,0,0
302865.4,120.699,-594.228,0,0
304167.025,115.393,-593.86,0,0
305468.65,108.146,-593.589,0,0
306770.275,99.5627,-590.969,0,0
308071.9,91.8782,-586.583,0,0
309373.525,84.8761,-581.183,0,0
310675.15,78.9359,-575.064,0,0
311976.775,73.9465,-568.51,0,0
313278.4,69.8151,-561.805,0,0
314580,66.5272,-555.04,0,0
315882,63.7484,-548.574,0,0
317183,61.3618,-542.12,0,0
318485,59.7381,-535.713,0,0
319787,58.3856,-529.704,0,0
321088,57.0284,-523.899,0,0
322390,56.0163,-517.856,0,0
323691,55.3072,-511.579,0,0
324993,55.4261,-504.776,0,0
326295,57.5331,-498.17,0,0
327596,60.895,-493.864,0,0
328898,63.1405,-491.132,0,0
330200,65.3207,-489.005,0,0
331501.125,66.8263,-488.211,0,0
332802.75,66.6655,-488.376,0,0
334104.375,64.4957,-487.598,0,0
335406.0,62.0694,-485.316,0,0
336707.625,59.8434,-482.308,0,0
338009.25,57.9366,-478.718,0,0
339310.875,56.3309,-474.88,0,0
340612.5,55.1088,-470.739,0,0
341914.125,54.1005,-466.456,0,0
343215.75,53.5,-461.957,0,0
344517.375,53.5088,-457.23,0,0
345819.0,54.0597,-452.741,0,0
347121,55.0497,-448.506,0,0
348422,56.371,-444.639,0,0
349724,58.0895,-441.119,0,0
351025,60.1168,-438.27,0,0
352327,61.7947,-436.246,0,0
353629,62.8203,-434.166,0,0
354930,64.0295,-431.919,0,0
356232,65.389,-429.682,0,0
357534,67.1928,-427.79,0,0
358835,69.1722,-426.617,0,0
360137,70.8465,-426.214,0,0
361438,71.7311,-426.368,0,0
362740.1,71.9004,-426.448,0,0
364041.725,71.4363,-426.296,0,0
365343.35,70.7921,-425.716,0,0
366644.975,69.9786,-424.675,0,0
367946.6,69.6839,-423.298,0,0
369248.225,70.0506,-422.427,0,0
370549.85,69.7045,-422.585,0,0
371851.475,68.3895,-422.099,0,0
373153.1,67.4448,-421.377,0,0
374454.725,66.1916,-420.92,0,0
375756.35,64.4742,-420.11,0,0
377057.975,62.8143,-418.99,0,0
378359.6,61.0995,-418.127,0,0
379661,58.1114,-416.995,0,0
380963,55.4706,-413.475,0,0
382264,55.3894,-410.772,0,0
383566,54.2508,-409.658,0,0
384868,51.9756,-407.852,0,0
386169,49.7289,-405.131,0,0
387471,47.9531,-401.931,0,0
388773,46.5846,-398.388,0,0
390074,46.1287,-394.635,0,0
391376,46.3893,-392,0,0
392677,45.7473,-390.313,0,0
393979,43.9695,-387.968,0,0
395280.7,42.1637,-384.443,0,0
396582.325,41.2865,-380.203,0,0
397883.95,41.2137,-375.968,0,0
399185.575,41.7228,-372.107,0,0
400006.6,42.2102,-369.881,0,0