Folder: ML_Dmg_Mehdi_Dataset/Accelerated corrosion test data/2025-10-09_06-00-03 (part 2)

File: sample_3.csv
Frequency (Hz),Impedance (ohms),Phase (Radians),Temperature (C),Humidity (%)
10000.0,252.311,-11790.3,0,0
11301.625,224.494,-10443.8,0,0
12603.25,204.038,-9373.06,0,0
13904.875,185.642,-8500.66,0,0
15206.5,173.785,-7769.71,0,0
16508.125,162.271,-7175.44,0,0
17809.75,157.704,-6646.04,0,0
19111.375,147.025,-6195.15,0,0
20413.0,159.282,-5795.04,0,0
21714.625,139.322,-5473.96,0,0
23016.25,128.555,-5168.4,0,0
24317.875,119.282,-4889.13,0,0
25619.5,113.91,-4641.48,0,0
26921.1,108.627,-4411.37,0,0
28222.7,104.057,-4204.89,0,0
29524.4,109.33,-4027.51,0,0
30826,101.454,-3855.82,0,0
32127.6,101.759,-3691.55,0,0
33429.2,100.069,-3567.05,0,0
34730.9,88.1623,-3428.95,0,0
36032.5,83.4404,-3301.09,0,0
37334.1,80.4108,-3183.32,0,0
38635.7,78.2707,-3073.39,0,0
39937.4,75.9072,-2970.82,0,0
41239,74.6592,-2873.92,0,0
42540.6,73.3249,-2784.14,0,0
43842.225,71.9167,-2698.76,0,0
45143.85,71.2345,-2619,0,0
46445.475,70.0967,-2543.54,0,0
47747.1,70.2647,-2470.64,0,0
49048.725,68.6394,-2405.36,0,0
50350.35,66.6705,-2340.18,0,0
51651.975,66.3361,-2277.5,0,0
52953.6,66.5206,-2217.72,0,0
54255.225,69.4519,-2162.85,0,0
55556.85,66.7165,-2115.45,0,0
56858.475,61.889,-2062.58,0,0
58160.1,61.251,-2010.72,0,0
59461.7,61.7849,-1961.4,0,0
60763.3,63.181,-1914.75,0,0
62065,65.1621,-1870.11,0,0
63366.6,68.6846,-1826.53,0,0
64668.2,77.4118,-1784.67,0,0
65969.8,92.1317,-1759,0,0
67271.5,76.206,-1733.87,0,0
68573.1,76.3183,-1696.28,0,0
69874.7,76.0323,-1667.02,0,0
71176.3,70.8259,-1636.59,0,0
72478,69.4733,-1603.95,0,0
73779.6,67.9526,-1575.67,0,0
75081.2,64.3706,-1547.49,0,0
76382.825,60.7741,-1518.27,0,0
77684.45,58.2764,-1489.38,0,0
78986.075,56.0083,-1460.81,0,0
80287.7,54.4077,-1432.82,0,0
81589.325,53.449,-1405.65,0,0
82890.95,52.882,-1379.2,0,0
84192.575,52.5959,-1353.51,0,0
85494.2,52.5388,-1328.52,0,0
86795.825,52.6362,-1304.18,0,0
88097.45,53.2232,-1280.2,0,0
89399.075,54.4875,-1256.49,0,0
90700.7,56.8085,-1234.64,0,0
92002.3,59.3233,-1213.82,0,0
93303.9,62.537,-1195.11,0,0
94605.6,63.5634,-1180.77,0,0
95907.2,58.3015,-1163.18,0,0
97208.8,56.9601,-1142.04,0,0
98510.4,56.7677,-1122.63,0,0
99812.1,56.1521,-1103.83,0,0
101114,55.564,-1084.14,0,0
102415,56.7375,-1063.63,0,0
103717,60.5828,-1045.88,0,0
105019,64.0052,-1031.91,0,0
106320.175,63.2083,-1018.39,0,0
107621.8,60.612,-1002.66,0,0
108923.425,58.806,-984.955,0,0
110225.05,58.8069,-966.353,0,0
111526.675,61.0322,-948.486,0,0
112828.3,63.3612,-932.492,0,0
114129.925,64.8222,-916.498,0,0
115431.55,66.968,-899.629,0,0
116733.175,70.7299,-883.123,0,0
118034.8,76.3983,-867.29,0,0
119336.425,83.0837,-855.411,0,0
120638.05,88.911,-848.9,0,0
121939.675,86.3526,-840.705,0,0
123241,86.7805,-827.378,0,0
124543,88.2476,-816.065,0,0
125845,89.5608,-805.758,0,0
127146,88.8379,-795.997,0,0
128448,87.1338,-785.244,0,0
129749,85.5352,-772.095,0,0
131051,86.5704,-759.142,0,0
132353,85.9826,-748.024,0,0
133654,85.4257,-736.01,0,0
134956,83.8905,-723.478,0,0
136258,82.5784,-710.039,0,0
137559,82.477,-694.892,0,0
138860.775,83.8948,-681.508,0,0
140162.4,82.9778,-668.004,0,0
141464.025,82.8142,-653.885,0,0
142765.65,82.0617,-638.049,0,0
144067.275,82.4146,-620.904,0,0
145368.9,83.939,-603.03,0,0
146670.525,86.5732,-584.172,0,0
147972.15,90.9268,-564.404,0,0
149273.775,97.3185,-544.241,0,0
150575.4,107.582,-523.761,0,0
151877.025,120.098,-507.015,0,0
153178.65,132.943,-493.061,0,0
154480,143.168,-480.861,0,0
155782,151.548,-465.357,0,0
157084,162.86,-447.66,0,0
158385,179.475,-435.572,0,0
159687,184.605,-421.785,0,0
160988,199.912,-393.472,0,0
162290,225.483,-368.026,0,0
163592,261.585,-348.08,0,0
164893,309.433,-335.898,0,0
166195,362.076,-348.629,0,0
167497,400.384,-381.129,0,0
168798,422.21,-417.151,0,0
170100,423.393,-458.378,0,0
171401.375,409.194,-475.571,0,0
172703.0,403.375,-480.234,0,0
174004.625,411.423,-487.037,0,0
175306.25,415.852,-505.739,0,0
176607.875,409.69,-525.061,0,0
177909.5,388.69,-542.879,0,0
179211.125,364.752,-535.441,0,0
180512.75,359.331,-521.217,0,0
181814.375,363.974,-517.208,0,0
183116.0,357.054,-523.857,0,0
184417.625,342.421,-521.565,0,0
185719.25,328.727,-509.236,0,0
187021,322.566,-486.452,0,0
188322,328.449,-466.813,0,0
189624,334.087,-452.42,0,0
190926,343.905,-438.164,0,0
192227,352.98,-424.739,0,0
193529,363.809,-407.029,0,0
194831,386.717,-388.503,0,0
196132,418.923,-384.292,0,0
197434,441.187,-396.35,0,0
198735,454.41,-402.049,0,0
200037,465.599,-405.248,0,0
201339,471.242,-402.375,0,0
202640.35,488.65,-392.866,0,0
203941.975,518.364,-390.808,0,0
205243.6,547.739,-402.857,0,0
206545.225,561.898,-420.446,0,0
207846.85,578.105,-420.694,0,0
209148.475,609.638,-427.844,0,0
210450.1,642.727,-448.861,0,0
211751.725,670.47,-480.073,0,0
213053.35,691.745,-515.109,0,0
214354.975,706.825,-556.967,0,0
215656.6,715.372,-601.803,0,0
216958.225,712.94,-650.545,0,0
218259.85,699.44,-693.758,0,0
219561,680.441,-731.085,0,0
220863,661.064,-769.676,0,0
222165,629.994,-806.705,0,0
223466,587.43,-833.362,0,0
224768,543.56,-836.909,0,0
226070,520.33,-832.785,0,0
227371,504.292,-841.145,0,0
228673,479.981,-853.937,0,0
229974,450.83,-860.229,0,0
231276,422.428,-861.831,0,0
232578,396.774,-859.56,0,0
233879,373.012,-856.4,0,0
235180.95,350.044,-852.112,0,0
236482.575,326.146,-847.281,0,0
237784.2,302.205,-839.107,0,0
239085.825,278.135,-825.57,0,0
240387.45,260.276,-807.645,0,0
241689.075,246.38,-790.218,0,0
242990.7,237.759,-772.02,0,0
244292.325,232.286,-756.944,0,0
245593.95,227.777,-745.009,0,0
246895.575,222.312,-733.406,0,0
248197.2,218.073,-721.383,0,0
249498.825,217.263,-710.229,0,0
250800,216.056,-703.93,0,0
252102,210.385,-698.314,0,0
253404,202.124,-688.48,0,0
254705,196.609,-673.418,0,0
256007,196.721,-656.295,0,0
257309,204.568,-641.41,0,0
258610,213.562,-633.261,0,0
259912,224.319,-625.412,0,0
261213,239.63,-625.386,0,0
262515,250.717,-636.97,0,0
263817,250.255,-651.414,0,0
265118,241.006,-663.069,0,0
266420,226.476,-667.268,0,0
267721.55,212.234,-663.597,0,0
269023.175,202.524,-654.903,0,0
270324.8,197.038,-646.021,0,0
271626.425,194.393,-636.702,0,0
272928.05,194.044,-629.538,0,0
274229.675,193.102,-621.895,0,0
275531.3,196.09,-613.377,0,0
276832.925,203.571,-608.177,0,0
278134.55,211.56,-610.003,0,0
279436.175,215.252,-616.537,0,0
280737.8,213.2,-624.006,0,0
282039.425,207.316,-629.364,0,0
283341,198.881,-631.658,0,0
284643,189.981,-630.563,0,0
285944,181.873,-626.437,0,0
287246,176.366,-619.775,0,0
288548,175.005,-613.329,0,0
289849,174.649,-610.265,0,0
291151,172.994,-608.303,0,0
292452,169.623,-605.859,0,0
293754,167.544,-600.697,0,0
295056,169.16,-596.733,0,0
296357,171.553,-596.614,0,0
297659,171.519,-599.29,0,0
298960.525,168.098,-602.317,0,0
300262.15,162.791,-603.792,0,0
301563.775,156.498,-603.831,0,0
302865.4,149.779,-601.988,0,0
304167.025,143.687,-598.809,0,0
305468.65,138.272,-594.492,0,0
306770.275,134.031,-589.29,0,0
308071.9,131.597,-584.287,0,0
309373.525,129.857,-580.784,0,0
310675.15,127.329,-578.294,0,0
311976.775,123.593,-575.651,0,0
313278.4,118.976,-571.52,0,0
314580,115.373,-565.62,0,0
315882,113.959,-558.873,0,0
317183,114.848,-553.637,0,0
318485,115.54,-550.518,0,0
319787,115.352,-547.794,0,0
321088,115.254,-544.972,0,0
322390,116.077,-542.643,0,0
323691,116.812,-542.545,0,0
324993,115.458,-543.406,0,0
326295,112.275,-543.887,0,0
327596,108.063,-543.269,0,0
328898,103.698,-541.378,0,0
330200,99.5398,-538.761,0,0
331501.125,95.4491,-535.926,0,0
332802.75,91.0592,-532.431,0,0
334104.375,86.6356,-528.072,0,0
335406.0,82.8256,-522.516,0,0
336707.625,80.1621,-516.569,0,0
338009.25,78.166,-510.531,0,0
339310.875,76.8042,-504.089,0,0
340612.5,76.8948,-497.336,0,0
341914.125,78.665,-491.404,0,0
343215.75,81.331,-487.569,0,0
344517.375,83.1284,-485.475,0,0
345819.0,83.3743,-483.847,0,0
347121,83.0022,-481.571,0,0
348422,82.3803,-478.95,0,0
349724,81.9745,-475.58,0,0
351025,82.6977,-472.065,0,0
352327,84.3347,-470.093,0,0
353629,84.6936,-469.794,0,0
354930,83.1073,-468.818,0,0
356232,81.4195,-466.727,0,0
357534,79.7517,-464.08,0,0
358835,78.495,-460.597,0,0
360137,78.2633,-457.082,0,0
361438,78.3222,-454.222,0,0
362740.1,78.1636,-451.312,0,0
364041.725,78.6081,-448.059,0,0
365343.35,80.1549,-445.978,0,0
366644.975,80.5858,-445.74,0,0
367946.6,78.865,-445.152,0,0
369248.225,76.297,-442.353,0,0
370549.85,75.9209,-437.781,0,0
371851.475,77.7754,-435.088,0,0
373153.1,78.1792,-434.831,0,0
374454.725,76.4044,-433.719,0,0
375756.35,74.5273,-431.012,0,0
377057.975,73.7096,-427.267,0,0
378359.6,74.0814,-423.808,0,0
379661,75.0664,-421.11,0,0
380963,75.9228,-419.435,0,0
382264,76.1635,-417.997,0,0
383566,75.9546,-416.82,0,0
384868,75.039,-415.497,0,0
386169,73.8147,-413.414,0,0
387471,72.6652,-410.81,0,0
388773,71.6885,-407.728,0,0
390074,71.2397,-403.921,0,0
391376,71.8364,-399.942,0,0
392677,73.5268,-396.289,0,0
393979,75.9733,-393.799,0,0
395280.7,78.3424,-392.506,0,0
396582.325,80.2382,-392.109,0,0
397883.95,81.3893,-392.467,0,0
399185.575,81.3056,-393.042,0,0
400006.6,80.7547,-393.128,0,0

File: sample_4.csv
Frequency (Hz),Impedance (ohms),Phase (Radians),Temperature (C),Humidity (%)
10000.0,264.898,-11866.6,0,0
11301.625,235.738,-10512.5,0,0
12603.25,213.993,-9431.29,0,0
13904.875,194.224,-8551.53,0,0
15206.5,181.539,-7827.4,0,0
16508.125,188.974,-7212.24,0,0
17809.75,156.695,-6705.52,0,0
19111.375,146.088,-6249.58,0,0
20413.0,141.282,-5849.44,0,0
21714.625,145.31,-5504.35,0,0
23016.25,125.683,-5204.74,0,0
24317.875,116.648,-4919.7,0,0
25619.5,112.934,-4667.36,0,0
26921.1,107.354,-4437.75,0,0
28222.7,120.111,-4234.04,0,0
29524.4,114.211,-4055.85,0,0
30826,99.2365,-3883.91,0,0
32127.6,100.237,-3723.86,0,0
33429.2,90.6864,-3583.02,0,0
34730.9,85.4626,-3444.58,0,0
36032.5,82.3487,-3317.4,0,0
37334.1,80.023,-3198.69,0,0
38635.7,77.4375,-3086.9,0,0
39937.4,77.2475,-2981.35,0,0
41239,80.4482,-2886.49,0,0
42540.6,79.1957,-2799.12,0,0
43842.225,74.2364,-2715.51,0,0
45143.85,71.5622,-2634.4,0,0
46445.475,70.6067,-2556.98,0,0
47747.1,70.3714,-2487.56,0,0
49048.725,66.244,-2418.43,0,0
50350.35,64.8775,-2351.05,0,0
51651.975,64.0963,-2286.53,0,0
52953.6,66.0007,-2223.66,0,0
54255.225,73.908,-2166.98,0,0
55556.85,72.113,-2124.13,0,0
56858.475,66.2085,-2070.47,0,0
58160.1,66.9444,-2017.77,0,0
59461.7,70.9979,-1967.62,0,0
60763.3,80.3776,-1929.63,0,0
62065,70.2885,-1896.12,0,0
63366.6,64.4253,-1851.04,0,0
64668.2,64.8105,-1807.56,0,0
65969.8,66.7431,-1767.19,0,0
67271.5,70.5068,-1731.03,0,0
68573.1,74.0714,-1702.11,0,0
69874.7,66.6233,-1672.21,0,0
71176.3,64.9736,-1637.74,0,0
72478,59.4348,-1606.59,0,0
73779.6,57.9563,-1570.01,0,0
75081.2,59.9647,-1537.22,0,0
76382.825,62.4673,-1508.42,0,0
77684.45,65.1792,-1480.61,0,0
78986.075,64.0882,-1458.28,0,0
80287.7,61.0843,-1431.4,0,0
81589.325,60.5361,-1405.41,0,0
82890.95,59.2374,-1380.48,0,0
84192.575,58.0323,-1355.55,0,0
85494.2,57.1795,-1331.38,0,0
86795.825,56.4627,-1307.72,0,0
88097.45,55.1625,-1285.18,0,0
89399.075,53.6239,-1260.99,0,0
90700.7,53.5238,-1237.83,0,0
92002.3,53.8116,-1214.76,0,0
93303.9,55.0949,-1193.98,0,0
94605.6,53.7061,-1173.71,0,0
95907.2,53.1412,-1151.25,0,0
97208.8,53.8952,-1129.56,0,0
98510.4,55.1146,-1108.16,0,0
99812.1,57.5605,-1087.48,0,0
101114,61.7034,-1068.73,0,0
102415,61.1592,-1054.31,0,0
103717,58.156,-1031.82,0,0
105019,61.7283,-1008.33,0,0
106320.175,68.1155,-987.866,0,0
107621.8,74.8035,-969.901,0,0
108923.425,82.9432,-953.023,0,0
110225.05,91.081,-940.194,0,0
111526.675,97.3075,-929.043,0,0
112828.3,102.585,-918.93,0,0
114129.925,106.351,-910.118,0,0
115431.55,108.463,-902.016,0,0
116733.175,108.268,-893.716,0,0
118034.8,106.303,-883.119,0,0
119336.425,107.351,-869.411,0,0
120638.05,112.629,-864.438,0,0
121939.675,105.696,-858.288,0,0
123241,100.83,-846.093,0,0
124543,97.7535,-833.588,0,0
125845,95.6848,-821.299,0,0
127146,92.4867,-810.584,0,0
128448,87.5472,-798.913,0,0
129749,80.9535,-784.49,0,0
131051,75.9014,-766.838,0,0
132353,73.1858,-748.088,0,0
133654,72.3283,-729.102,0,0
134956,72.8745,-710.218,0,0
136258,74.968,-691.773,0,0
137559,77.7118,-674.41,0,0
138860.775,79.5955,-656.667,0,0
140162.4,82.8481,-637.681,0,0
141464.025,87.9193,-618.705,0,0
142765.65,93.8125,-600.516,0,0
144067.275,100.472,-582.316,0,0
145368.9,108.073,-563.79,0,0
146670.525,117.307,-545.137,0,0
147972.15,128.082,-527.087,0,0
149273.775,140.633,-508.84,0,0
150575.4,155.324,-491.187,0,0
151877.025,173.919,-474.78,0,0
153178.65,196.05,-462.52,0,0
154480,217.684,-457.291,0,0
155782,234.789,-453.107,0,0
157084,250.332,-451.561,0,0
158385,265.112,-446.124,0,0
159687,284.992,-443.476,0,0
160988,303.61,-450.658,0,0
162290,310.24,-457.199,0,0
163592,314.785,-456.678,0,0
164893,323.952,-450.663,0,0
166195,338.39,-443.786,0,0
167497,364.355,-441.821,0,0
168798,392.203,-457.857,0,0
170100,408.985,-485.317,0,0
171401.375,407.009,-523.597,0,0
172703.0,382.862,-549.771,0,0
174004.625,349.847,-556.228,0,0
175306.25,321.967,-545.557,0,0
176607.875,303.451,-524.245,0,0
177909.5,296.554,-500.576,0,0
179211.125,295.806,-479.738,0,0
180512.75,299.185,-460.774,0,0
181814.375,303.485,-444.068,0,0
183116.0,306.593,-427.205,0,0
184417.625,310.86,-406.608,0,0
185719.25,318.623,-383.321,0,0
187021,331.177,-358.017,0,0
188322,348.771,-331.417,0,0
189624,373.154,-303.819,0,0
190926,406.276,-277.134,0,0
192227,448.34,-254.898,0,0
193529,498.341,-240.118,0,0
194831,553.448,-234.243,0,0
196132,612.435,-236.494,0,0
197434,678.658,-247.975,0,0
198735,752.11,-277.368,0,0
200037,823.918,-334.27,0,0
201339,875.12,-416.215,0,0
202640.35,896.385,-507.038,0,0
203941.975,894.851,-591.42,0,0
205243.6,875.759,-669.774,0,0
206545.225,844.569,-735.284,0,0
207846.85,806.227,-799.226,0,0
209148.475,745.807,-846.565,0,0
210450.1,685.92,-867.573,0,0
211751.725,634.685,-873.78,0,0
213053.35,595.251,-870.61,0,0
214354.975,566.414,-863.631,0,0
215656.6,550.738,-862.881,0,0
216958.225,530.584,-871.033,0,0
218259.85,507.817,-875.344,0,0
219561,486.33,-879.131,0,0
220863,463.743,-883.637,0,0
222165,440.105,-885.686,0,0
223466,417.448,-885.512,0,0
224768,395.841,-885.714,0,0
226070,371.204,-886.718,0,0
227371,343.609,-882.712,0,0
228673,315.589,-873.736,0,0
229974,291.255,-858.047,0,0
231276,272.815,-840.06,0,0
232578,258.69,-822.456,0,0
233879,247.855,-805.328,0,0
235180.95,239.482,-789.147,0,0
236482.575,232.969,-774.956,0,0
237784.2,227.443,-760.195,0,0
239085.825,225.46,-746.791,0,0
240387.45,224.544,-736.692,0,0
241689.075,223,-728.931,0,0
242990.7,220.016,-722.702,0,0
244292.325,215.322,-716.783,0,0
245593.95,208.802,-709.12,0,0
246895.575,203.33,-699.141,0,0
248197.2,200.714,-688.724,0,0
249498.825,198.348,-680.051,0,0
250800,195.935,-671.732,0,0
252102,192.732,-664.27,0,0
253404,186.919,-654.945,0,0
254705,182.54,-641.334,0,0
256007,180.652,-625.489,0,0
257309,183.56,-607.42,0,0
258610,191.949,-589.786,0,0
259912,206.214,-574.511,0,0
261213,225.445,-564.603,0,0
262515,245.763,-562.597,0,0
263817,266.73,-565.941,0,0
265118,284.689,-577.206,0,0
266420,298.696,-594.333,0,0
267721.55,303.86,-616.19,0,0
269023.175,301.255,-637.761,0,0
270324.8,287.931,-655.083,0,0
271626.425,275.861,-661.977,0,0
272928.05,266.779,-670.179,0,0
274229.675,254.835,-679.068,0,0
275531.3,237.425,-686.314,0,0
276832.925,215.853,-685.797,0,0
278134.55,196.872,-676.161,0,0
279436.175,185.709,-660.726,0,0
280737.8,183.787,-648.448,0,0
282039.425,182.319,-641.094,0,0
283341,181.619,-633.634,0,0
284643,182.299,-630.817,0,0
285944,179.352,-629.655,0,0
287246,172.07,-626.383,0,0
288548,165.83,-616.77,0,0
289849,166.471,-602.921,0,0
291151,175.928,-593.326,0,0
292452,188.219,-592.645,0,0
293754,197.419,-600.645,0,0
295056,198.556,-613.347,0,0
296357,190.887,-624.165,0,0
297659,179.246,-628.337,0,0
298960.525,169.29,-627.962,0,0
300262.15,160.797,-626.291,0,0
301563.775,152.472,-623.733,0,0
302865.4,145.113,-619.402,0,0
304167.025,138.612,-614.869,0,0
305468.65,132.786,-609.286,0,0
306770.275,128.556,-603.005,0,0
308071.9,126.157,-597.285,0,0
309373.525,124.427,-593.253,0,0
310675.15,121.707,-590.201,0,0
311976.775,118.183,-586.39,0,0
313278.4,115.066,-581.938,0,0
314580,113.017,-577.086,0,0
315882,111.848,-573.104,0,0
317183,110.801,-570.1,0,0
318485,109.548,-568.166,0,0
319787,107.38,-567.283,0,0
321088,103.503,-566.505,0,0
322390,97.3236,-564.999,0,0
323691,90.24,-560.187,0,0
324993,85.4046,-553.064,0,0
326295,82.5402,-546.344,0,0
327596,79.9865,-539.835,0,0
328898,77.9602,-532.835,0,0
330200,77.7924,-525.563,0,0
331501.125,79.0302,-519.789,0,0
332802.75,80.2542,-515.836,0,0
334104.375,80.2998,-512.922,0,0
335406.0,79.0862,-509.752,0,0
336707.625,77.1052,-505.792,0,0
338009.25,75.4169,-500.102,0,0
339310.875,75.1006,-493.823,0,0
340612.5,76.2373,-487.415,0,0
341914.125,79.0479,-481.62,0,0
343215.75,83.4556,-477.815,0,0
344517.375,87.2646,-476.852,0,0
345819.0,89.2158,-477.146,0,0
347121,89.3781,-477.669,0,0
348422,88.2372,-477.384,0,0
349724,86.3761,-476.273,0,0
351025,84.2312,-474.169,0,0
352327,82.4118,-471.219,0,0
353629,81.1381,-467.438,0,0
354930,81.2414,-463.719,0,0
356232,81.5475,-461.22,0,0
357534,81.0692,-459.186,0,0
358835,79.621,-456.74,0,0
360137,78.3072,-452.845,0,0
361438,77.9786,-448.69,0,0
362740.1,78.6384,-444.556,0,0
364041.725,79.6856,-441.425,0,0
365343.35,79.9195,-438.533,0,0
366644.975,79.9423,-434.598,0,0
367946.6,81.1982,-429.852,0,0
369248.225,84.0283,-425.225,0,0
370549.85,88.5646,-421.828,0,0
371851.475,93.8909,-420.563,0,0
373153.1,98.8259,-422.009,0,0
374454.725,101.202,-425.326,0,0
375756.35,100.98,-428.147,0,0
377057.975,99.9245,-429.406,0,0
378359.6,99.1288,-430.132,0,0
379661,97.9359,-430.95,0,0
380963,96.3899,-430.977,0,0
382264,94.888,-430.141,0,0
383566,95.7107,-430.109,0,0
384868,94.597,-433.166,0,0
386169,89.8728,-435.311,0,0
387471,83.8644,-434.04,0,0
388773,79.5488,-429.816,0,0
390074,78.483,-425.206,0,0
391376,79.2019,-423.209,0,0
392677,78.3855,-423.796,0,0
393979,74.2919,-423.888,0,0
395280.7,69.5856,-421.313,0,0
396582.325,65.7901,-417.076,0,0
397883.95,63.3048,-412.299,0,0
399185.575,61.573,-407.478,0,0
400006.6,60.8135,-404.284,0,0